session_time_us,monotonic_us,imu_timestamp_sec,temp,gx,gy,gz,ax,ay,az
13427,2708684,0.11090458333333333,26.806640625,-0.0016555080655962229,-0.00023596151731908321,0.0019114515744149685,0.17271509766578674,-0.09758380055427551,9.82760238647461
13946,2709203,0.11115145833333333,26.489397048950195,2.9538437956944108e-05,0.00028513491270132363,0.0005589922075159848,0.15163874626159668,-0.17480942606925964,9.937175750732422
14007,2709264,0.11176947916666667,26.55908203125,-0.0009199545020237565,0.00046578122419305146,0.0001457312610000372,0.14394229650497437,-0.1777842938899994,9.816200256347656
14373,2709630,0.112283125,26.56082534790039,0.004141516983509064,-0.0006162337958812714,0.006753731984645128,0.16001564264297485,-0.1697593629360199,9.810504913330078
14495,2709752,0.11277630208333334,26.55908203125,0.03435415029525757,0.018987450748682022,0.04166650027036667,0.14080584049224854,-0.16491803526878357,9.799596786499023
14984,2710241,0.11328859375,26.489397048950195,0.0773620754480362,0.03575388714671135,0.07698611915111542,0.14286082983016968,-0.1582821011543274,9.803573608398438
15472,2710729,0.11378416666666667,26.55908203125,0.05544368922710419,-0.016049958765506744,0.06651552021503448,0.15569117665290833,-0.18294422328472137,9.809290885925293
16021,2711278,0.11428640625,26.596540451049805,-0.009730512276291847,0.021536746993660927,0.09456843137741089,0.1608666032552719,-0.18553760647773743,9.816166877746582
16540,2711797,0.11478817708333333,26.55908203125,0.01240619271993637,-0.12531070411205292,0.017675884068012238,0.13538582623004913,-0.1594255268573761,9.808176040649414
17028,2712285,0.11532375,26.55908203125,0.0009211432188749313,-0.1735086292028427,-0.000580713152885437,0.1320566087961197,-0.16409631073474884,9.81224250793457
17547,2712804,0.11586125,26.56103515625,0.002478992100805044,-0.18276344239711761,-0.036306168884038925,0.1639026701450348,-0.18261763453483582,9.809799194335938
18615,2713872,0.11636213541666666,26.53348159790039,0.0029023787938058376,-0.14911410212516785,-0.0957353487610817,0.15923729538917542,-0.1714116334915161,9.796875
19561,2714818,0.11686880208333333,26.56103515625,-0.010650123469531536,-0.10621815919876099,-0.02132629230618477,0.1447741687297821,-0.1568201780319214,9.818872451782227
20019,2715276,0.11740588541666666,26.56103515625,-0.012846097350120544,-0.03926985710859299,-0.016396217048168182,0.14089155197143555,-0.15771137177944183,9.813519477844238
20080,2715337,0.11794114583333333,26.56103515625,-0.006716091651469469,0.029225001111626625,-0.0111727025359869,0.15956690907478333,-0.18436026573181152,9.809736251831055
20202,2715459,0.11847614583333334,26.56103515625,0.002544510643929243,0.18678486347198486,-0.06211087852716446,0.15658709406852722,-0.17636603116989136,9.81075668334961
20599,2715856,0.11898109375,26.561941146850586,0.014857370406389236,0.21711468696594238,0.023002445697784424,0.12986963987350464,-0.15788480639457703,9.801019668579102
21240,2716497,0.1194828125,26.56103515625,0.007862579077482224,0.16930705308914185,-0.01175224781036377,0.13064998388290405,-0.16696733236312866,9.806011199951172
21667,2716924,0.12001953125,26.56103515625,0.00029029883444309235,0.07070661336183548,-0.012514948844909668,0.15444503724575043,-0.18365687131881714,9.810710906982422
22186,2717443,0.12052057291666667,26.555803298950195,0.0008948515169322491,0.12008044868707657,-0.031795747578144073,0.15975983440876007,-0.18374797701835632,9.812295913696289
22704,2717961,0.12102744791666667,26.55810546875,0.0013103471137583256,0.12029178440570831,-0.039957351982593536,0.1519850194454193,-0.15756574273109436,9.812273025512695
23772,2719029,0.12157567708333333,26.55810546875,0.0007332009263336658,0.12107422947883606,-0.037549667060375214,0.14899930357933044,-0.17373022437095642,9.816786766052246
24261,2719518,0.12208119791666666,26.602678298950195,-0.005937738809734583,0.14064733684062958,-0.022845260798931122,0.14490076899528503,-0.16937023401260376,9.804718017578125
24657,2719914,0.12258567708333333,26.5654296875,-0.018500473350286484,0.12967492640018463,-0.02265740931034088,0.14729946851730347,-0.16956758499145508,9.813423156738281
24780,2720037,0.12311911458333333,26.5654296875,-0.003879864700138569,0.1292496770620346,-0.027236059308052063,0.14814257621765137,-0.16068558394908905,9.804445266723633
25268,2720525,0.12362203125,26.60379409790039,-0.0008156324038282037,0.009258192963898182,-0.11460775882005692,0.1563698947429657,-0.17814984917640686,9.803478240966797
25787,2721044,0.12412401041666667,26.5654296875,0.009752381592988968,0.13391339778900146,-0.04578173905611038,0.14956629276275635,-0.1727542281150818,9.818214416503906
26336,2721593,0.12466,26.5654296875,0.008169468492269516,0.1434878259897232,-0.0473756268620491,0.14201775193214417,-0.1644950807094574,9.803967475891113
26824,2722081,0.12515932291666668,26.582590103149414,0.007705936674028635,0.17297513782978058,-0.05366615206003189,0.14691013097763062,-0.16717611253261566,9.818625450134277
27343,2722600,0.12566880208333334,26.5654296875,0.0096788564696908,0.15229691565036774,-0.016360044479370117,0.16368040442466736,-0.172665536403656,9.805356979370117
27862,2723119,0.12616427083333334,26.48828125,0.013650098815560341,0.11139831691980362,0.06239160895347595,0.15139728784561157,-0.17237496376037598,9.805876731872559
28960,2724217,0.12667369791666666,26.56494140625,0.009913562797009945,0.014794113114476204,0.029379840940237045,0.13963627815246582,-0.1675211787223816,9.816672325134277
29449,2724706,0.12721052083333334,26.56103515625,0.0026301892939954996,-0.002529650693759322,0.003975580912083387,0.13742485642433167,-0.16533374786376953,9.796527862548828
29510,2724767,0.12774692708333332,26.56103515625,0.008676921017467976,0.00525732571259141,0.008668352849781513,0.15250712633132935,-0.17443707585334778,9.802589416503906
29937,2725194,0.12828265625,26.58837890625,0.007477219216525555,0.007237094920128584,0.00805627927184105,0.15154807269573212,-0.1700686812400818,9.805889129638672
30486,2725743,0.12882005208333333,26.58837890625,0.007215640041977167,0.0061364988796412945,0.008055150508880615,0.14087045192718506,-0.16619470715522766,9.812122344970703
31005,2726262,0.12935723958333334,26.58837890625,0.008642100729048252,0.00639878585934639,0.007838727906346321,0.14734020829200745,-0.17115119099617004,9.816017150878906
31524,2726781,0.12989401041666668,26.58837890625,0.008001498878002167,0.006255276035517454,0.007327292580157518,0.15019449591636658,-0.1718338578939438,9.81015682220459
32043,2727300,0.13040057291666668,26.56473159790039,0.007057426497340202,0.007389231584966183,0.008726251311600208,0.15874028205871582,-0.17452731728553772,9.798386573791504
32531,2727788,0.13090098958333332,26.58837890625,0.006539776921272278,0.006755765527486801,0.007748721167445183,0.14162975549697876,-0.1611376702785492,9.812152862548828
34118,2729375,0.13140536458333332,26.59765625,0.007915845140814781,0.0075843152590096,0.008587706834077835,0.13964074850082397,-0.16493099927902222,9.808013916015625
34698,2729955,0.13190604166666667,26.58837890625,0.008519294671714306,0.006185007281601429,0.0067278072237968445,0.15287384390830994,-0.1842813342809677,9.810018539428711
35094,2730351,0.132423125,26.637277603149414,0.008426734246313572,0.00714060990139842,0.008067496120929718,0.1496155560016632,-0.17087355256080627,9.7915620803833
35583,2730840,0.13295994791666665,26.602678298950195,0.004123165272176266,-8.707572123967111e-05,-0.0011758743785321712,0.14499741792678833,-0.16427484154701233,9.800392150878906
35674,2730931,0.13344744791666666,26.5859375,0.007275399751961231,0.006814293563365936,0.0068218600936234,0.14118821918964386,-0.16432426869869232,9.811399459838867
36193,2731450,0.13395380208333332,26.633928298950195,0.008470121771097183,0.007801547180861235,0.0075224619358778,0.159165620803833,-0.17648781836032867,9.793628692626953
36590,2731847,0.13445380208333332,26.5859375,0.007754886522889137,0.006473103072494268,0.006326859351247549,0.1649884581565857,-0.17297035455703735,9.79360294342041
36712,2731969,0.134958125,26.587053298950195,0.00725304801017046,0.00752905523404479,0.007302035577595234,0.14397618174552917,-0.16604852676391602,9.814569473266602
37200,2732457,0.13546213541666666,26.5859375,0.006776095367968082,0.006260655354708433,0.006081319414079189,0.13765475153923035,-0.15531109273433685,9.809473037719727
37719,2732976,0.13599807291666666,26.5859375,0.0072070155292749405,0.006577040068805218,0.006048100534826517,0.15667900443077087,-0.18107303977012634,9.820328712463379
38238,2733495,0.13653578125,26.5859375,0.007313765585422516,0.006820191629230976,0.005913698114454746,0.16125701367855072,-0.1678718775510788,9.807013511657715
39275,2734532,0.13703348958333333,26.51171875,0.008157283999025822,0.008132086135447025,0.006836672313511372,0.13348810374736786,-0.1587892472743988,9.806411743164062
39763,2735020,0.13754072916666665,26.5859375,0.007522540632635355,0.006381201557815075,0.005365608725696802,0.1399533748626709,-0.17312991619110107,9.81463623046875
39824,2735081,0.13807692708333333,26.5859375,0.007383706048130989,0.005343308672308922,0.004709678236395121,0.15198659896850586,-0.18897292017936707,9.809951782226562
40282,2735539,0.13861390625,26.5859375,0.007583917584270239,0.004957450553774834,0.004810382146388292,0.15775027871131897,-0.18189279735088348,9.799690246582031
40770,2736027,0.13911098958333334,26.588727951049805,0.007918845862150192,0.006397351156920195,0.005765346810221672,0.14192843437194824,-0.16233375668525696,9.806660652160645
41320,2736577,0.13962130208333334,26.5859375,0.006825077347457409,0.006068725138902664,0.004517311230301857,0.15274834632873535,-0.17251497507095337,9.80900764465332
41839,2737096,0.14015744791666668,26.5849609375,0.007238275371491909,0.0056768455542624,0.004570985212922096,0.15646818280220032,-0.18454205989837646,9.817028045654297
42327,2737584,0.14069375,26.5849609375,0.007908524014055729,0.005615903530269861,0.004381774924695492,0.14623256027698517,-0.16709095239639282,9.810230255126953
42876,2738133,0.14123041666666666,26.5849609375,0.006764550693333149,0.006304745562374592,0.004259026143699884,0.14107999205589294,-0.16221362352371216,9.818421363830566
43364,2738621,0.14173083333333333,26.60546875,0.007685750722885132,0.0073717692866921425,0.004088845103979111,0.16247910261154175,-0.18150010704994202,9.811214447021484
44494,2739751,0.14223713541666666,26.5849609375,0.00681550707668066,0.00567619688808918,0.0037865054327994585,0.16471759974956512,-0.18375900387763977,9.797887802124023
45012,2740269,0.14277427083333333,26.5849609375,0.006805446930229664,0.005470888689160347,0.0037219556979835033,0.14536158740520477,-0.16764357686042786,9.80186939239502
45440,2740697,0.14331072916666668,26.5849609375,0.0027540577575564384,0.005115701351314783,0.0065687051974236965,0.13209548592567444,-0.16113433241844177,9.799942016601562
45501,2740758,0.14381520833333333,26.567522048950195,0.007294319570064545,0.006895794067531824,0.005092591047286987,0.15255603194236755,-0.1710316240787506,9.80990219116211
45958,2741215,0.14431786458333334,26.58251953125,0.007806544192135334,0.005921451840549707,0.0027955209370702505,0.1675991714000702,-0.19230574369430542,9.811851501464844
46477,2741734,0.14482291666666666,26.59207534790039,0.0037052477709949017,0.00023756394512020051,-0.0031957111787050962,0.14709235727787018,-0.1591702103614807,9.809457778930664
47026,2742283,0.14532213541666666,26.58251953125,0.006183080840855837,0.006433846428990364,0.002508108038455248,0.1438806653022766,-0.160861074924469,9.819780349731445
47545,2742802,0.14585875,26.58447265625,0.004717616364359856,0.0038654038216918707,-0.0007872229907661676,0.16027948260307312,-0.17731891572475433,9.80994987487793
48033,2743290,0.14636609375,26.632253646850586,0.004121161065995693,-0.00041597598465159535,-0.005252303089946508,0.1570233851671219,-0.17290320992469788,9.795818328857422
48552,2743809,0.14686416666666666,26.58447265625,0.0035204337909817696,-0.0002667231601662934,-0.004645161796361208,0.1442197561264038,-0.16952162981033325,9.80223560333252
49681,2744938,0.14740229166666666,26.58447265625,0.003841589903458953,0.0006253634346649051,-0.003703760216012597,0.1453043520450592,-0.15783104300498962,9.811891555786133
50688,2745945,0.14790463541666668,26.593191146850586,0.003603707067668438,0.0006524947821162641,-0.0033261901699006557,0.15525002777576447,-0.1861831545829773,9.81070327758789
50719,2745976,0.14840765625,26.58447265625,0.0027168430387973785,0.0004391613183543086,-0.0012084818445146084,0.1823560893535614,-0.18172970414161682,9.810758590698242
51207,2746464,0.14890010416666666,26.511159896850586,0.0011221496388316154,0.0001050554565154016,0.0007501074578613043,0.13383133709430695,-0.16468119621276855,9.807357788085938
51604,2746861,0.14941421875,26.58447265625,-0.00033929571509361267,0.00025632005417719483,0.0004521872033365071,0.14657345414161682,-0.15991289913654327,9.816600799560547
51726,2746983,0.149950625,26.5849609375,-0.00057838304201141,-0.00022851055837236345,0.00030342908576130867,0.15395985543727875,-0.1779358685016632,9.81944465637207
52184,2747441,0.15048713541666667,26.59326171875,-0.0001849009277066216,2.1779531380161643e-05,0.0005062883719801903,0.16932550072669983,-0.19057698547840118,9.808074951171875
52733,2747990,0.15102359375,26.59326171875,0.00021309932344593108,0.00013792476966045797,0.0006953899282962084,0.1508883386850357,-0.16772985458374023,9.791911125183105
53252,2748509,0.15156088541666668,26.59326171875,-0.00017043962725438178,2.6183028239756823e-05,0.0009265535627491772,0.13032463192939758,-0.16245132684707642,9.797883987426758
53740,2748997,0.15209755208333334,26.59326171875,-0.00011432213796069846,-0.0001566934515722096,0.0002882259723264724,0.15429499745368958,-0.1745908409357071,9.814346313476562
54839,2750096,0.15261260416666667,26.594865798950195,-3.6331948649603873e-05,-0.000601825478952378,0.0005333126755431294,0.157136470079422,-0.18918009102344513,9.823087692260742
55327,2750584,0.1530809375,26.59988784790039,0.00015630894631613046,-0.0004961739759892225,0.0007855828735046089,0.1624746322631836,-0.16970565915107727,9.821588516235352
55785,2751042,0.15357552083333334,26.59326171875,6.834033410996199e-05,9.266368579119444e-07,0.0006016666884534061,0.15893152356147766,-0.17163752019405365,9.81647777557373
55846,2751103,0.15411072916666665,26.59326171875,-0.0006363090360537171,-0.00011204153997823596,0.0004310093936510384,0.1437065452337265,-0.17388731241226196,9.812638282775879
56304,2751561,0.15461677083333333,26.602121353149414,-0.00013226385635789484,-0.000519228691700846,0.0005101271672174335,0.148995041847229,-0.17682644724845886,9.804537773132324
56822,2752079,0.15511682291666667,26.59228515625,-0.00023857684573158622,-0.0002620521408971399,0.0005317967152222991,0.14148852229118347,-0.16487157344818115,9.804486274719238
57341,2752598,0.15565567708333333,26.59228515625,-0.00035567834856919944,0.00016859281458891928,0.0005912887863814831,0.15830621123313904,-0.17468170821666718,9.806885719299316
57829,2753086,0.15615291666666667,26.56640625,-8.151211659424007e-05,-0.0002081671846099198,0.000703491794411093,0.17146703600883484,-0.16970999538898468,9.803823471069336
58379,2753636,0.156660625,26.59228515625,0.000373752205632627,-0.0003628938284236938,0.00026347298990003765,0.1539650857448578,-0.18257948756217957,9.813848495483398
58867,2754124,0.15715338541666668,26.608816146850586,0.0005747773684561253,0.00030232343124225736,0.00026395003078505397,0.15114785730838776,-0.15446516871452332,9.82121467590332
59966,2755223,0.15766682291666667,26.587890625,0.0003819235716946423,0.0004859039909206331,0.00036918011028319597,0.14326158165931702,-0.17060816287994385,9.816240310668945
60484,2755741,0.15820307291666666,26.587890625,0.00026699836598709226,0.0005071376217529178,0.0002024383284151554,0.1638510823249817,-0.18304041028022766,9.804424285888672
60942,2756199,0.15870213541666667,26.636159896850586,-0.0001536417257739231,0.0003078229201491922,6.348609167616814e-05,0.1609305441379547,-0.1829891949892044,9.796731948852539
61003,2756260,0.15920984375,26.587890625,-0.0004827646189369261,-0.00019757231348194182,0.00020887254504486918,0.16080152988433838,-0.17173632979393005,9.798063278198242
61461,2756718,0.15974713541666666,26.587890625,-0.0007216229569166899,-0.0006096350261941552,0.0006236403714865446,0.14361432194709778,-0.16518215835094452,9.800909042358398
62010,2757267,0.16023369791666667,26.520090103149414,-0.0004119751392863691,-0.00025249755708500743,0.00039301023934967816,0.1421324908733368,-0.174676775932312,9.807062149047852
62529,2757786,0.16075229166666666,26.591796875,0.00022439837630372494,0.0003714650811161846,0.00039974742685444653,0.14767247438430786,-0.17676539719104767,9.814613342285156
63475,2758732,0.16128838541666668,26.591796875,-0.00047679839190095663,4.746540798805654e-05,0.0007664390723221004,0.16759969294071198,-0.18434232473373413,9.809318542480469
63536,2758793,0.161824375,26.591796875,-0.0004906525136902928,-0.00017114271759055555,0.0007266823085956275,0.16344819962978363,-0.1786457896232605,9.807607650756836
70738,2765995,0.16236088541666666,26.591796875,0.00023820510250516236,3.6919795093126595e-05,0.0003103188064415008,0.1589958369731903,-0.15865370631217957,9.814979553222656
71898,2767155,0.16289854166666667,26.587890625,0.00019272029749117792,0.0001594911009306088,0.00027309736469760537,0.13401931524276733,-0.16914400458335876,9.807626724243164
72386,2767643,0.16343416666666666,26.587890625,0.00011200877634109929,0.00040868049836717546,0.00046769576147198677,0.15632179379463196,-0.16383305191993713,9.813655853271484
72447,2767704,0.16397145833333332,26.587890625,-9.695961489342153e-05,0.00014466175343841314,0.000658858276437968,0.1701313555240631,-0.19431792199611664,9.806989669799805
72905,2768162,0.16447895833333334,26.598215103149414,-0.0001989232114283368,-0.0007091464940458536,0.0002854613121598959,0.18614572286605835,-0.18090736865997314,9.800683975219727
73271,2768528,0.16497869791666667,26.587890625,0.0001061162183759734,-0.0004934166790917516,-5.243152554612607e-05,0.14572380483150482,-0.1642720103263855,9.80235481262207
73393,2768650,0.16548479166666666,26.600446701049805,-0.00012214714661240578,0.00016537492047064006,-0.00028779837884940207,0.12522421777248383,-0.16427648067474365,9.808292388916016
73424,2768681,0.16598364583333333,26.587890625,-0.000328478665323928,0.000683956197462976,0.0005168674397282302,0.15233877301216125,-0.16087406873703003,9.817757606506348
73820,2769077,0.1665040625,26.561384201049805,-0.00022124868701212108,0.00015931398957036436,0.0007152346661314368,0.16629329323768616,-0.17582514882087708,9.801149368286133
73942,2769199,0.16699104166666667,26.587890625,-0.0005398200592026114,-2.9838960472261533e-05,0.0005854245973750949,0.1765284240245819,-0.17118516564369202,9.816465377807617
74339,2769596,0.16752875,26.5869140625,-0.00035293149994686246,-4.211789928376675e-06,0.0009403509902767837,0.15031740069389343,-0.1719670295715332,9.80574893951416
74431,2769688,0.16806317708333332,26.587890625,-9.623062214814126e-05,0.000478110188851133,0.0006685776170343161,0.14616301655769348,-0.15897776186466217,9.81571102142334
74492,2769749,0.16857635416666666,26.588727951049805,-0.00048140122089535,0.0002046873269136995,0.00011683799675665796,0.13763856887817383,-0.17069189250469208,9.805524826049805
74919,2770176,0.16906901041666667,26.587890625,0.00014609843492507935,0.0005902715492993593,0.0001901890937006101,0.16076475381851196,-0.18449464440345764,9.812056541442871
74980,2770237,0.16957296875,26.520090103149414,2.7896807296201587e-05,0.0004939812351949513,3.40113474521786e-05,0.1751440465450287,-0.19035384058952332,9.810088157653809
75011,2770268,0.17007484375,26.587890625,-0.00011363977682776749,-0.00021404438302852213,0.0006487077916972339,0.1636829823255539,-0.17736920714378357,9.823516845703125
75468,2770725,0.17057427083333335,26.637277603149414,-0.00021714418835472316,-6.892613600939512e-05,0.00045648173545487225,0.13103686273097992,-0.16055074334144592,9.820087432861328
75529,2770786,0.17108348958333333,26.587890625,-0.0001874106819741428,0.0003691543824970722,-2.076695454888977e-05,0.14109456539154053,-0.16096433997154236,9.826115608215332
75987,2771244,0.17161911458333334,26.587890625,-0.000699394557159394,-5.3262250730767846e-05,0.0004910241113975644,0.1588689088821411,-0.18823125958442688,9.808816909790039
76018,2771275,0.17215583333333334,26.58984375,-0.0003662830567918718,-0.00026419153437018394,0.00046125735389068723,0.1747797131538391,-0.1879940927028656,9.802907943725586
77452,2772709,0.1726921875,26.58984375,-0.00040009868098422885,0.000152502630953677,-0.00015275788609869778,0.15039324760437012,-0.16584835946559906,9.802934646606445
78001,2773258,0.17322838541666666,26.58984375,-9.762060653883964e-05,0.00019445546786300838,6.869239587103948e-05,0.1455787867307663,-0.16952988505363464,9.80184555053711
78489,2773746,0.17372614583333335,26.606584548950195,-2.48930009547621e-05,0.00044808522216044366,0.00035254989052191377,0.15383347868919373,-0.1802397072315216,9.814741134643555
78550,2773807,0.17423401041666667,26.58984375,7.385340722976252e-05,9.77473973762244e-06,0.000835927901789546,0.1557597815990448,-0.18103456497192383,9.807168960571289
79008,2774265,0.17477072916666667,26.58447265625,-0.0001653438521316275,-0.0002638801815919578,0.0008815478067845106,0.15744003653526306,-0.16468672454357147,9.817293167114258
79039,2774296,0.17530901041666666,26.58447265625,0.0002458111848682165,6.776255031581968e-05,0.0003816208918578923,0.15679813921451569,-0.1689544916152954,9.815671920776367
79619,2774876,0.17584640625,26.58447265625,0.0003518512239679694,-2.753861917881295e-05,5.06032956764102e-05,0.17015139758586884,-0.1909879744052887,9.802654266357422
80015,2775272,0.17634119791666666,26.58984375,-4.452445136848837e-05,-0.0003463931498117745,0.0003307602892164141,0.1664000004529953,-0.1908152997493744,9.804405212402344
80137,2775394,0.17685109375,26.58447265625,7.312011439353228e-05,0.00034510419936850667,0.0005288863321766257,0.1257266253232956,-0.15750721096992493,9.803997039794922
80626,2775883,0.17734536458333333,26.596540451049805,0.0005511540221050382,0.0006040569860488176,-0.00010691316856537014,0.14624656736850739,-0.17958587408065796,9.799009323120117
80687,2775944,0.17785744791666666,26.58447265625,0.00025710734189487994,-2.757013135123998e-05,-0.0003481864696368575,0.1760834902524948,-0.19012686610221863,9.796655654907227
81175,2776432,0.178395,26.58447265625,-0.00010685902088880539,-0.00023530179169028997,-9.945542842615396e-05,0.17163610458374023,-0.17204180359840393,9.816126823425293
81205,2776462,0.17893057291666667,26.58447265625,2.6974623324349523e-05,0.00018671744328457862,-2.339758793823421e-05,0.15101242065429688,-0.16600392758846283,9.81442928314209
82243,2777500,0.17946739583333332,26.58447265625,7.2741167969070375e-06,0.0001365253992844373,0.00011267271474935114,0.14633816480636597,-0.16634735465049744,9.817970275878906
82731,2777988,0.18000546875,26.58447265625,-0.0002151434018742293,0.00022282020654529333,0.00032000787905417383,0.15460392832756042,-0.1895979344844818,9.813282012939453
82792,2778049,0.1805403125,26.59033203125,-0.00028497219318524003,-0.00017978725372813642,0.0005663055344484746,0.16706699132919312,-0.1815032958984375,9.80086898803711
83250,2778507,0.18107776041666668,26.59033203125,-0.000402553821913898,-0.0005866517894901335,0.0008631146629340947,0.1511339694261551,-0.16700533032417297,9.789458274841309
83647,2778904,0.18159078125,26.598772048950195,-0.0008101711282506585,0.00021809013560414314,0.0007893794681876898,0.17525765299797058,-0.17833459377288818,9.793035507202148
83738,2778995,0.18208619791666666,26.59033203125,-0.00020632136147469282,0.0009791122283786535,0.00028193395701237023,0.1481114625930786,-0.1761857271194458,9.80257797241211
84227,2779484,0.18259046875,26.52901840209961,-9.749715536599979e-05,0.001090395962819457,0.00033291534055024385,0.14597126841545105,-0.17932745814323425,9.812070846557617
84745,2780002,0.18309135416666666,26.59033203125,-8.252542465925217e-05,0.000544309092219919,0.0006703108083456755,0.15187421441078186,-0.17017120122909546,9.815488815307617
85264,2780521,0.1836278125,26.59033203125,-1.2563750715344213e-05,0.0001339115115115419,0.0009418518748134375,0.1737709641456604,-0.17443642020225525,9.815166473388672
85783,2781040,0.18412953125,26.55636215209961,1.4333709259517491e-05,-0.0003540495818015188,0.00033333589090034366,0.16372588276863098,-0.19444671273231506,9.808834075927734
86332,2781589,0.18463364583333333,26.58642578125,1.743763277772814e-05,-0.0008344207890331745,2.3048407456371933e-05,0.14873486757278442,-0.16933193802833557,9.805424690246582
87400,2782657,0.18516932291666666,26.5791015625,-0.00034025649074465036,-0.00036037215613760054,0.0003157948958687484,0.13464778661727905,-0.16212785243988037,9.798523902893066
87919,2783176,0.18566697916666666,26.625,-0.0003296664508525282,1.803891791496426e-05,0.00013861889601685107,0.14836663007736206,-0.18064534664154053,9.786869049072266
88316,2783573,0.18617651041666666,26.5791015625,-0.0001849367399699986,-1.094235631171614e-05,0.0006013695383444428,0.16577261686325073,-0.1850234866142273,9.801506996154785
88407,2783664,0.18671177083333335,26.5791015625,5.731258715968579e-05,0.00010093376477016136,0.0006299315136857331,0.1737215369939804,-0.18531417846679688,9.816061973571777
88926,2784183,0.18725,26.5791015625,-0.0002983525046147406,0.0007489516865462065,0.00036710634594783187,0.14650586247444153,-0.15793892741203308,9.810609817504883
89445,2784702,0.18778645833333332,26.5791015625,-0.0005606584018096328,0.0007329494692385197,6.461940938606858e-05,0.13492698967456818,-0.16889598965644836,9.824615478515625
89964,2785221,0.18828864583333332,26.58370590209961,3.12432530336082e-05,-0.0001588364248163998,9.984505595639348e-05,0.14812561869621277,-0.19007903337478638,9.813491821289062
90452,2785709,0.18879151041666667,26.5791015625,0.0002947694156318903,-0.0005976828397251666,0.00041738880099728703,0.17176514863967896,-0.19321171939373016,9.802507400512695
91001,2786258,0.18932739583333333,26.578125,0.0003017541312146932,0.00013541142106987536,0.0005197157734073699,0.16417448222637177,-0.17998534440994263,9.79863452911377
92558,2787815,0.18986395833333333,26.578125,-4.6654531615786254e-06,0.0003305349382571876,0.0006314634229056537,0.16015692055225372,-0.16940532624721527,9.797351837158203
93504,2788761,0.1903715625,26.58426284790039,0.00040148012340068817,-0.00030294276075437665,0.0002541449503041804,0.12335190922021866,-0.1843714416027069,9.805475234985352
93626,2788883,0.19087229166666667,26.578125,0.00032394015579484403,-0.0005462967092171311,0.00039397148066200316,0.15920618176460266,-0.18216565251350403,9.814788818359375
94114,2789371,0.19140776041666666,26.578125,-4.599086241796613e-05,-0.0002649058005772531,0.0004402452614158392,0.15888787806034088,-0.18017630279064178,9.81777572631836
94175,2789432,0.19191109375,26.600446701049805,5.7119606935884804e-05,-4.4623368012253195e-05,0.00047922151861712337,0.16367724537849426,-0.16989652812480927,9.817068099975586
94633,2789890,0.19241484375,26.58447265625,5.219928425503895e-06,0.00016255589434877038,0.0009895407129079103,0.1595376580953598,-0.18538311123847961,9.82106876373291
95030,2790287,0.19295140625,26.58447265625,0.00019064867228735238,0.00019876289297826588,0.0007801265455782413,0.1460985243320465,-0.17681339383125305,9.803506851196289
95152,2790409,0.193458125,26.58984375,6.313122867140919e-05,-0.0001896543544717133,0.0007053731242194772,0.14946556091308594,-0.17683374881744385,9.80958080291748
95671,2790928,0.19395802083333333,26.58447265625,0.00020736454462166876,0.00011652696412056684,0.0010838578455150127,0.15048956871032715,-0.18100109696388245,9.801795959472656
96128,2791385,0.19445677083333332,26.515066146850586,0.0008126225438900292,0.00022463867207989097,0.0006967882509343326,0.16458606719970703,-0.18325462937355042,9.798046112060547
96678,2791935,0.19496390625,26.578125,0.00023081911785993725,-9.838167170528322e-05,0.00024066482728812844,0.15364645421504974,-0.18539182841777802,9.818599700927734
97776,2793033,0.19547375,26.55636215209961,0.00025358813581988215,0.00047633706708438694,0.00029038070351816714,0.15482786297798157,-0.16021305322647095,9.812446594238281
98295,2793552,0.1959703125,26.5771484375,-0.0001290438522119075,0.0011389564024284482,-0.0002187514037359506,0.1400499939918518,-0.1724412739276886,9.819538116455078
98722,2793979,0.19650645833333333,26.5771484375,-0.0003882420714944601,4.538232315098867e-05,5.249810783425346e-05,0.1698732227087021,-0.17846283316612244,9.815805435180664
98783,2794040,0.19700619791666665,26.62276840209961,-0.000471971434308216,-0.00028485411894507706,0.0003527606022544205,0.14822998642921448,-0.1708092987537384,9.807668685913086
99302,2794559,0.19747427083333333,26.581472396850586,-0.000559507345315069,-0.00020580252748914063,0.00016260231495834887,0.14852449297904968,-0.18342836201190948,9.797708511352539
99790,2795047,0.1980525,26.57421875,-0.00043169886339455843,-0.0001480288919992745,0.0002543148002587259,0.14536108076572418,-0.16631215810775757,9.80260181427002
100248,2795505,0.19854421875,26.581472396850586,-0.00030832545598968863,0.00023095690994523466,0.00041744927875697613,0.15509015321731567,-0.18064090609550476,9.805591583251953
100767,2796024,0.19905432291666666,26.57421875,0.00019203049305360764,-4.8098132538143545e-05,9.921955643221736e-05,0.1695273518562317,-0.19307434558868408,9.806498527526855
101316,2796573,0.19959192708333334,26.57421875,-0.00012127042282372713,-0.0003010272339452058,0.0003663275274448097,0.15073426067829132,-0.1778481900691986,9.824113845825195
101835,2797092,0.20012958333333333,26.57421875,0.0003491025709081441,0.00023204386525321752,0.0004965512198396027,0.14871983230113983,-0.1655803620815277,9.815574645996094
102934,2798191,0.200665625,26.57421875,0.0003815870441030711,0.0003764526336453855,0.00023241128656081855,0.14544174075126648,-0.17954248189926147,9.816154479980469
103422,2798679,0.20116036458333333,26.588727951049805,-0.000199249479919672,0.00013986138219479471,0.0005258054588921368,0.15717309713363647,-0.1707671731710434,9.813068389892578
103819,2799076,0.20167291666666667,26.58056640625,-0.0002608833892736584,0.00024432281497865915,0.0001774588308762759,0.15901118516921997,-0.19963794946670532,9.798901557922363
103910,2799167,0.20221171875,26.58544921875,-0.00025946536334231496,-3.7811900256201625e-05,0.00032281532185152173,0.16526156663894653,-0.1742219179868698,9.805798530578613
104429,2799686,0.202745625,26.58544921875,-0.00028159795328974724,-3.32520721713081e-06,0.00015347343287430704,0.12961815297603607,-0.17928273975849152,9.800086975097656
104917,2800174,0.20328380208333333,26.58544921875,-0.0009294151095673442,9.016366675496101e-08,-9.505602065473795e-05,0.15754434466362,-0.18061339855194092,9.809906959533691
105436,2800693,0.20379833333333333,26.516183853149414,-0.0007614153437316418,0.00039055984234437346,-1.849920954555273e-05,0.15173201262950897,-0.18441462516784668,9.810745239257812
105985,2801242,0.204288125,26.58544921875,0.00018106635252479464,0.0006811661878600717,0.0001693834929028526,0.16652780771255493,-0.18509401381015778,9.798011779785156
106474,2801731,0.20482453125,26.58544921875,-0.0004977167118340731,-3.847555490210652e-06,0.0006712462636642158,0.14579950273036957,-0.1690923571586609,9.820988655090332
107420,2802677,0.20533848958333334,26.608816146850586,-0.00022196158533915877,-4.054159944644198e-05,0.00025380143779329956,0.14201906323432922,-0.17185276746749878,9.822202682495117
108060,2803317,0.20583078125,26.58544921875,-0.0001652163191465661,-0.00013035142910666764,0.0003713345213327557,0.1520601511001587,-0.18339288234710693,9.801298141479492
108640,2803897,0.20633661458333333,26.589284896850586,-0.0003750441246666014,-0.0003363684518262744,0.0006393793155439198,0.15765365958213806,-0.1921149641275406,9.801422119140625
109129,2804386,0.20683708333333334,26.5888671875,-0.00017909645976033062,-0.00019145195255987346,0.0007419927860610187,0.1583660989999771,-0.16122981905937195,9.797280311584473
109190,2804447,0.20734703125,26.598215103149414,-0.00016284848970826715,-4.861941852141172e-05,0.00021893679513595998,0.15483927726745605,-0.19323986768722534,9.798934936523438
109647,2804904,0.20780776041666665,26.63504409790039,-0.0005938818212598562,0.00024065715842880309,0.0002650988753885031,0.155804842710495,-0.17444035410881042,9.804115295410156
110105,2805362,0.20831145833333334,26.5888671875,5.1417096983641386e-05,0.0008086674497462809,0.0004316757258493453,0.14324219524860382,-0.17848150432109833,9.810249328613281
110624,2805881,0.20884828125,26.5888671875,0.0001427404786227271,0.000967920757830143,0.0003705452545545995,0.16698768734931946,-0.17063821852207184,9.826815605163574
111143,2806400,0.20934432291666666,26.56640625,-7.74380168877542e-07,0.00032941228710114956,0.0003868326894007623,0.14349672198295593,-0.1738022118806839,9.798942565917969
111631,2806888,0.20992354166666666,26.58984375,-0.00014422672393266112,-0.0005496321246027946,0.0001875719171948731,-0.0630839541554451,-0.22430306673049927,9.609235763549805
112180,2807437,0.21045994791666667,26.58984375,0.0004618950479198247,-0.004853149875998497,0.00018708764400798827,0.35706382989883423,-0.27166298031806946,9.659133911132812
113248,2808505,0.210955,26.56640625,0.00596692506223917,-0.009684108197689056,0.00020154283265583217,0.20872852206230164,-0.48381727933883667,9.801078796386719
113737,2808994,0.21146734375,26.58984375,0.014352938160300255,-0.00646701967343688,-0.0017178463749587536,0.3412288427352905,-0.14783677458763123,9.845254898071289
113798,2809055,0.21200223958333334,26.59521484375,0.01713811792433262,-0.00044550240272656083,-0.0011882438557222486,-0.11497864872217178,-0.16906949877738953,10.23786735534668
114255,2809512,0.21254161458333334,26.59521484375,0.011543627828359604,0.004993296228349209,0.002075201366096735,-0.08254432678222656,-0.11745275557041168,10.079826354980469
114774,2810031,0.21303380208333333,26.597097396850586,-8.458594675175846e-05,-0.009423315525054932,0.007219159975647926,1.1247937679290771,0.007200427353382111,9.685577392578125
115262,2810519,0.2135475,26.59521484375,-0.009912862442433834,-0.012045485898852348,0.012968244031071663,0.4647292494773865,-0.4563431143760681,9.96223258972168
115812,2811069,0.214081875,26.59521484375,-0.012380938977003098,0.013243362307548523,0.010348038747906685,0.3690018057823181,0.35246390104293823,9.862825393676758
116270,2811527,0.21461947916666665,26.59521484375,-0.012927521951496601,0.02135279029607773,0.004500438459217548,-0.005329439416527748,-0.2535639703273773,9.658549308776855
116819,2812076,0.21515609375,26.60205078125,-0.014996681362390518,0.016680261120200157,0.0029707332141697407,-0.05259399116039276,0.03845023736357689,9.613727569580078
117338,2812595,0.21569380208333333,26.60205078125,-0.009997254237532616,0.013398968614637852,0.003905316349118948,-0.13243338465690613,-0.11752747744321823,9.792905807495117
118436,2813693,0.21623088541666666,26.60205078125,-0.005989584140479565,0.005171436350792646,0.0012122337939217687,0.36975324153900146,-0.19676682353019714,9.793547630310059
118955,2814212,0.21673791666666667,26.534040451049805,-0.00317170936614275,-0.004073927644640207,-0.0021797996014356613,0.6854598522186279,-0.09810206294059753,9.699264526367188
119413,2814670,0.21723526041666666,26.60205078125,0.0016823182813823223,-0.0038273169193416834,-0.007686568424105644,0.1614799201488495,-0.36033356189727783,9.844630241394043
119474,2814731,0.21777098958333332,26.60205078125,0.005235505290329456,0.0038712257519364357,-0.012644954957067966,-0.006710804998874664,-0.17944706976413727,9.869718551635742
119901,2815158,0.21827265625,26.60714340209961,0.005768015049397945,0.0005318005569279194,-0.013031458482146263,-0.2219546139240265,-0.4381265640258789,9.702600479125977
120450,2815707,0.21877859375,26.60009765625,0.004096698947250843,-0.005947974510490894,-0.008461241610348225,-0.047809649258852005,-0.3251616954803467,9.719741821289062
121091,2816348,0.21931515625,26.59326171875,0.0031410986557602882,-0.006174381822347641,-0.002744547091424465,-0.1767316609621048,-0.2453005611896515,9.82012939453125
121457,2816714,0.21985203125,26.59326171875,0.0033008370082825422,-0.006387550383806229,-0.0004141544341109693,0.20340844988822937,-0.32350581884384155,9.767698287963867
122098,2817355,0.22035588541666667,26.59542465209961,0.0033651827834546566,-0.008325966075062752,0.0002076640957966447,0.11858715116977692,-0.2552337050437927,9.77707290649414
122495,2817752,0.22085994791666666,26.59326171875,0.006439673714339733,-0.0010808646911755204,0.0019308668561279774,-0.2367478311061859,-0.23423263430595398,9.950789451599121
124082,2819339,0.22139401041666668,26.59326171875,0.007764034904539585,0.0066705141216516495,0.005526724271476269,-0.0889606699347496,-0.19784009456634521,9.956403732299805
124631,2819888,0.22190515625,26.64453125,0.0022601496893912554,0.0023664520122110844,0.010179699398577213,0.08891479671001434,-0.18410754203796387,9.83015251159668
125028,2820285,0.22237416666666668,26.617746353149414,-0.003582000732421875,-0.0010472408030182123,0.014565853402018547,0.30799394845962524,-0.07249799370765686,9.888507843017578
125150,2820407,0.22286890625,26.59326171875,-0.0080121960490942,0.003070967737585306,0.01613062247633934,0.3121199607849121,-0.03475232422351837,9.922513961791992
125547,2820804,0.22340885416666667,26.59375,-0.010855604894459248,0.007830191403627396,0.013682287186384201,0.3343043327331543,-0.015857979655265808,9.804258346557617
125638,2820895,0.22394677083333334,26.59375,-0.011729842983186245,0.012631084769964218,0.010966175235807896,0.1401941478252411,-0.07635273039340973,9.791409492492676
126157,2821414,0.22444609375,26.57421875,-0.012514826841652393,0.019192008301615715,0.009809495881199837,0.11147516220808029,-0.059042442589998245,9.884011268615723
126676,2821933,0.22495041666666668,26.59375,-0.0133688785135746,0.020000165328383446,0.009431966580450535,0.3531190752983093,-0.0479448027908802,9.874765396118164
127195,2822452,0.2254859375,26.59375,-0.015410291031002998,0.015303041785955429,0.00786739680916071,0.6568098664283752,-0.1376117467880249,9.777755737304688
127683,2822940,0.22602229166666668,26.59375,-0.017986809834837914,0.014648848213255405,0.005079149268567562,0.5056032538414001,-0.005695657804608345,9.831430435180664
128171,2823428,0.22652291666666666,26.592634201049805,-0.01751934364438057,0.02118934877216816,0.0007680985145270824,0.3867079019546509,-0.052917834371328354,9.972294807434082
129300,2824557,0.22702984375,26.58984375,-0.01708335056900978,0.02348448894917965,-0.0024341093376278877,0.5046982765197754,-0.12095611542463303,9.840099334716797
129789,2825046,0.22756630208333334,26.58984375,-0.018476294353604317,0.022290680557489395,-0.0036023149732500315,0.3021838068962097,-0.274280846118927,9.829314231872559
129850,2825107,0.22810427083333334,26.58984375,-0.02023131772875786,0.026769470423460007,-0.0031373905949294567,0.19622747600078583,-0.060713984072208405,9.846000671386719
130307,2825564,0.22860489583333332,26.524553298950195,-0.02246233820915222,0.026656359434127808,-0.0022794767282903194,0.32346779108047485,-0.2855147123336792,9.824485778808594
130765,2826022,0.22910953125,26.58154296875,-0.026703355833888054,0.02069392241537571,-0.0005408649449236691,0.6188088059425354,-0.27578940987586975,9.728412628173828
131284,2826541,0.22964682291666666,26.58154296875,-0.026411091908812523,0.020273081958293915,5.5429063650080934e-05,0.3578835129737854,-0.33827173709869385,9.778251647949219
131833,2827090,0.23014979166666666,26.58203125,-0.022674517706036568,0.028859438374638557,-0.00147385080344975,0.0300116166472435,-0.28646427392959595,9.876546859741211
132352,2827609,0.23065130208333334,26.58154296875,-0.020056746900081635,0.031913816928863525,-0.0005395759944804013,0.04530346393585205,-0.2522645890712738,9.811165809631348
132840,2828097,0.23118921875,26.58154296875,-0.02035490795969963,0.02667595073580742,0.0038666799664497375,0.11743200570344925,-0.3006170392036438,9.824305534362793
133390,2828647,0.23168411458333332,26.58984375,-0.02225801721215248,0.02195742353796959,0.00842713750898838,0.3177558481693268,-0.20790034532546997,9.880088806152344
134427,2829684,0.23219473958333334,26.58154296875,-0.022917939350008965,0.021013256162405014,0.00959400087594986,0.33744052052497864,-0.25416237115859985,9.855159759521484
134946,2830203,0.23273270833333334,26.5830078125,-0.02333258092403412,0.021467704325914383,0.008449684828519821,0.3055441975593567,-0.24841547012329102,9.750176429748535
135404,2830661,0.23326760416666667,26.5830078125,-0.021516501903533936,0.024286020547151566,0.008024562150239944,0.10044492781162262,-0.25390374660491943,9.768646240234375
135434,2830691,0.23380505208333333,26.5830078125,-0.018872980028390884,0.027498390525579453,0.008621812798082829,-0.1675143986940384,-0.20152270793914795,9.756237030029297
135953,2831210,0.23434088541666667,26.5830078125,-0.018250569701194763,0.023247908800840378,0.010526178404688835,0.03713542968034744,-0.15059518814086914,9.720198631286621
136472,2831729,0.23485104166666668,26.587053298950195,-0.018417660146951675,0.014728236012160778,0.013935694471001625,0.21179676055908203,-0.20767909288406372,9.750473022460938
137570,2832827,0.23534932291666666,26.5830078125,-0.01709606498479843,0.012313520535826683,0.015818562358617783,0.2720574140548706,-0.16905394196510315,9.801084518432617
137601,2832858,0.23584895833333333,26.6328125,-0.014081550762057304,0.014401157386600971,0.014560815878212452,0.15624818205833435,-0.237869530916214,9.813153266906738
138089,2833346,0.23635619791666668,26.58740234375,-0.012774942442774773,0.015774276107549667,0.013993704691529274,0.023285653442144394,-0.3250068128108978,9.804975509643555
138577,2833834,0.23689088541666667,26.59423828125,-0.012791233137249947,0.016265008598566055,0.015227122232317924,-0.052210502326488495,-0.35395461320877075,9.761747360229492
139646,2834903,0.23739796875,26.569753646850586,-0.012740042991936207,0.014617210254073143,0.019852150231599808,0.010937511920928955,-0.4316778779029846,9.751933097839355
140164,2835421,0.2378984375,26.59423828125,-0.012269455939531326,0.01061437837779522,0.025531500577926636,0.1300106942653656,-0.35091403126716614,9.704205513000488
140561,2835818,0.23840515625,26.52957534790039,-0.008201605640351772,0.0072198668494820595,0.029216919094324112,0.15956974029541016,-0.4029514789581299,9.683171272277832
140653,2835910,0.23890333333333333,26.59423828125,-0.004242841154336929,0.00623205304145813,0.03188834339380264,0.15451881289482117,-0.38777047395706177,9.727012634277344
141141,2836398,0.23943973958333334,26.59423828125,0.0005381971132010221,0.005477592349052429,0.03547460585832596,0.16340625286102295,-0.3897762894630432,9.765047073364258
141690,2836947,0.23997692708333335,26.59423828125,0.0048434557393193245,0.0026392845902591944,0.03946775943040848,0.1294744908809662,-0.3532469570636749,9.769591331481934
142148,2837405,0.24048223958333334,26.616071701049805,0.006544741801917553,-0.0011823942186310887,0.04322352260351181,0.1497146487236023,-0.3197476863861084,9.76777172088623
142667,2837924,0.24101817708333334,26.590959548950195,0.007991399616003036,-0.004901271779090166,0.047495096921920776,0.23871269822120667,-0.3372375965118408,9.771530151367188
143186,2838443,0.24151760416666668,26.5908203125,0.010250598192214966,-0.0073173763230443,0.050746992230415344,0.2300986349582672,-0.3075946569442749,9.727800369262695
143674,2838931,0.242015,26.616071701049805,0.013777748681604862,-0.007627429440617561,0.05245570093393326,0.22836729884147644,-0.31929001212120056,9.724609375
146390,2841647,0.24252552083333334,26.5908203125,0.0171759445220232,-0.007637029513716698,0.054768890142440796,0.20036040246486664,-0.2954472601413727,9.748652458190918
147397,2842654,0.24306083333333334,26.5908203125,0.020438743755221367,-0.008686814457178116,0.05707012861967087,0.23177528381347656,-0.2487804889678955,9.764453887939453
147458,2842715,0.24359713541666667,26.5908203125,0.022417575120925903,-0.010897137224674225,0.0597110241651535,0.3185445964336395,-0.2648497223854065,9.821789741516113
147885,2843142,0.24413411458333334,26.59716796875,0.02377454936504364,-0.01310136541724205,0.06108006089925766,0.36158931255340576,-0.2049207091331482,9.833160400390625
147946,2843203,0.24463567708333334,26.601003646850586,0.023841802030801773,-0.01487735379487276,0.060557201504707336,0.32261544466018677,-0.213100865483284,9.824460983276367
148373,2843630,0.24514177083333333,26.59716796875,0.02252117171883583,-0.014002411626279354,0.05902271717786789,0.2862228751182556,-0.19881221652030945,9.840879440307617
148892,2844149,0.24567817708333334,26.59716796875,0.02174658328294754,-0.012230380438268185,0.05777966231107712,0.23541182279586792,-0.15873286128044128,9.883875846862793
148923,2844180,0.24621505208333333,26.603515625,0.020048651844263077,-0.010936195030808449,0.05665438622236252,0.2006591409444809,-0.13204558193683624,9.879961013793945
149991,2845248,0.24675182291666667,26.603515625,0.017659280449151993,-0.009981896728277206,0.05638096481561661,0.2787656784057617,-0.095521479845047,9.885162353515625
150937,2846194,0.24726302083333335,26.6484375,0.01467056479305029,-0.007577571086585522,0.05691995099186897,0.2983901798725128,-0.07216307520866394,9.902852058410645
150998,2846255,0.24772875,26.610490798950195,0.011817545630037785,-0.0040466757491230965,0.0568610318005085,0.3610686957836151,-0.06647191941738129,9.9306058883667
151547,2846804,0.24822776041666667,26.603515625,0.009667092934250832,-0.00030968786450102925,0.05726733058691025,0.36057811975479126,-0.07251149415969849,9.921941757202148
151944,2847201,0.248738125,26.614397048950195,0.006395546719431877,0.0036526559852063656,0.05880027264356613,0.3215758502483368,-0.043448470532894135,9.88567066192627
152402,2847659,0.24927546875,26.53292465209961,0.0026851329021155834,0.007315667811781168,0.06075430288910866,0.2965533137321472,-0.04896952211856842,9.864718437194824
152432,2847689,0.24973557291666668,26.606584548950195,-0.0008089813636615872,0.008879316970705986,0.06256330013275146,0.3530796766281128,-0.04172135517001152,9.841706275939941
152920,2848177,0.25024078125,26.5966796875,-0.003674873150885105,0.010005129501223564,0.06542415916919708,0.3665890097618103,-0.006308326497673988,9.835838317871094
152981,2848238,0.25073708333333333,26.57254409790039,-0.0050758495926856995,0.012339084409177303,0.06856697052717209,0.34744590520858765,-0.002135803457349539,9.823169708251953
153104,2848361,0.25124994791666666,26.5966796875,-0.00530907791107893,0.014989908784627914,0.07103072106838226,0.2895568013191223,-0.03861222043633461,9.815256118774414
153470,2848727,0.2517314583333333,26.60546875,-0.005828876979649067,0.018115738406777382,0.07458364963531494,0.2765918970108032,-0.056243736296892166,9.786016464233398
154111,2849368,0.2522538541666667,26.59716796875,-0.0059885988011956215,0.019395165145397186,0.07812248170375824,0.28576311469078064,-0.07326512038707733,9.766973495483398
155118,2850375,0.25278822916666666,26.59716796875,-0.006269217003136873,0.019407860934734344,0.08291132748126984,0.35183537006378174,-0.06084673851728439,9.784318923950195
155636,2850893,0.25332520833333333,26.59716796875,-0.005808426067233086,0.01939050853252411,0.08839026838541031,0.3545089364051819,-0.07839863002300262,9.806297302246094
155697,2850954,0.25386307291666665,26.59619140625,-0.005154184065759182,0.019805174320936203,0.09313598275184631,0.2907169461250305,-0.13011837005615234,9.806485176086426
156125,2851382,0.25439963541666666,26.59619140625,-0.004971710965037346,0.02107609435915947,0.09708689153194427,0.145873561501503,-0.1908910870552063,9.857373237609863
156643,2851900,0.25493671875,26.59619140625,-0.004982338286936283,0.02262178063392639,0.10023573040962219,-0.027839776128530502,-0.20805898308753967,9.865650177001953
157162,2852419,0.25547203125,26.59619140625,-0.00748615013435483,0.02211906388401985,0.10249871015548706,-0.03812365233898163,-0.2574789524078369,9.873946189880371
157681,2852938,0.25601010416666664,26.59619140625,-0.011188110336661339,0.02213427796959877,0.10295635461807251,-0.05795368552207947,-0.3529185950756073,9.917647361755371
158169,2853426,0.25654479166666666,26.59619140625,-0.014227875508368015,0.025790635496377945,0.09756423532962799,-0.09332013130187988,-0.25774991512298584,9.960257530212402
158688,2853945,0.257055,26.61941909790039,-0.0170209351927042,0.030555209144949913,0.08907099068164825,-0.1464371383190155,-0.26207035779953003,10.001665115356445
159237,2854494,0.25755369791666666,26.59765625,-0.02168666198849678,0.033313870429992676,0.08352388441562653,-0.019639473408460617,-0.2945888042449951,9.963672637939453
160702,2855959,0.25808911458333333,26.59765625,-0.027353841811418533,0.03327210620045662,0.07842865586280823,-0.031358517706394196,-0.24236060678958893,9.851433753967285
160855,2856112,0.25862588541666665,26.59765625,-0.030646463856101036,0.033604614436626434,0.07074926793575287,-0.039035193622112274,-0.22495484352111816,9.783320426940918
161252,2856509,0.25913723958333335,26.640066146850586,-0.02922835946083069,0.035310227423906326,0.06404654681682587,-0.05043698102235794,-0.20763549208641052,9.737289428710938
161343,2856600,0.25960348958333335,26.601003646850586,-0.027154486626386642,0.03604596108198166,0.05836174637079239,0.002852683886885643,-0.23799479007720947,9.734209060668945
161831,2857088,0.26016786458333335,26.59765625,-0.02476133033633232,0.034171849489212036,0.0529838502407074,0.06239476054906845,-0.16747602820396423,9.75302505493164
162350,2857607,0.26067572916666665,26.601003646850586,-0.022795885801315308,0.03189484030008316,0.04919103905558586,0.059659041464328766,-0.11308668553829193,9.762046813964844
162838,2858095,0.2611753125,26.59130859375,-0.021804163232445717,0.028908347710967064,0.04816444218158722,0.2908898591995239,-0.1410316824913025,9.757547378540039
163357,2858614,0.261679375,26.526227951049805,-0.02095688320696354,0.02406233921647072,0.04709029197692871,0.25088822841644287,-0.14389488101005554,9.718122482299805
163907,2859164,0.2621809375,26.59130859375,-0.0188615545630455,0.022058235481381416,0.04508224129676819,0.13479945063591003,-0.15130317211151123,9.699117660522461
164425,2859682,0.262675625,26.59933090209961,-0.01554914191365242,0.021964550018310547,0.043652474880218506,-0.0727025642991066,-0.1297563910484314,9.564579963684082
165951,2861208,0.2631852604166667,26.59130859375,-0.014410426840186119,0.016120679676532745,0.04540858045220375,-0.4722350239753723,-0.33123886585235596,9.732376098632812
166592,2861849,0.26372510416666667,26.59130859375,-0.01791098341345787,-0.0016157935606315732,0.05061844736337662,0.33717381954193115,-0.4849168062210083,9.63962173461914
166958,2862215,0.26426125,26.59130859375,-0.015016810968518257,-0.015723049640655518,0.05810005962848663,0.49775224924087524,-0.5986027717590332,9.629644393920898
167080,2862337,0.2647980208333333,26.59130859375,-0.006132559850811958,-0.005452614743262529,0.06372910737991333,0.3388631343841553,-0.16328775882720947,9.80496883392334
167477,2862734,0.26529911458333333,26.569196701049805,-0.000794221181422472,0.006656453479081392,0.06897271424531937,0.2379854917526245,-0.44576868414878845,9.984933853149414
168026,2863283,0.26580203125,26.59130859375,0.0004222497809678316,0.004225220065563917,0.07535161077976227,0.3614161014556885,-0.37915244698524475,9.760526657104492
168087,2863344,0.26633942708333336,26.59130859375,0.0026426762342453003,0.004639260470867157,0.08307100832462311,-0.22482305765151978,-0.29071044921875,9.870916366577148
168576,2863833,0.26687635416666666,26.59130859375,0.004249437712132931,0.012360500171780586,0.09308396279811859,-0.07855057716369629,-0.24206486344337463,9.964069366455078
169064,2864321,0.2674122395833333,26.5947265625,0.0030058594420552254,0.00695035420358181,0.10404334962368011,0.4478856325149536,-0.2595694065093994,9.743850708007812
169583,2864840,0.26794890625,26.5947265625,0.0030172481201589108,-0.002196233719587326,0.11257170140743256,0.5480467081069946,-0.407707542181015,9.66043758392334
170651,2865908,0.2684546875,26.600446701049805,0.00576404295861721,0.002667803317308426,0.11749579012393951,0.3463208079338074,-0.30185186862945557,9.772886276245117
171170,2866427,0.2689551041666667,26.5947265625,0.008107856847345829,0.006963320076465607,0.12088179588317871,0.16981831192970276,-0.2934301495552063,9.640981674194336
171536,2866793,0.2694918229166667,26.595703125,0.005801275372505188,-0.0020527734886854887,0.12619271874427795,0.33201420307159424,-0.31208494305610657,9.614269256591797
171658,2866915,0.26999515625,26.60379409790039,0.0031672101467847824,-0.010191421955823898,0.13501712679862976,0.3292856216430664,-0.12947790324687958,9.803437232971191
172146,2867403,0.2704758854166667,26.637834548950195,0.002040277933701873,-0.011597131378948689,0.1415528804063797,-0.20038194954395294,0.5345620512962341,8.785178184509277
172695,2867952,0.27097041666666666,26.59375,-0.013297632336616516,-0.03750766068696976,0.1467866152524948,-4.085748672485352,-0.36399778723716736,9.281436920166016
173184,2868441,0.2715059375,26.58251953125,-0.0805491954088211,-0.1876223385334015,0.15903204679489136,1.7870938777923584,-1.8916854858398438,8.8892822265625
173733,2868990,0.2720110416666667,26.585378646850586,-0.1014474630355835,-0.3568018674850464,0.19173885881900787,3.995117664337158,-3.407215118408203,6.896435737609863
174221,2869478,0.27251020833333334,26.58251953125,-0.04253645986318588,-0.3053164780139923,0.20899266004562378,3.209484577178955,1.0372813940048218,8.770153045654297
174740,2869997,0.2730488541666667,26.58251953125,0.0451614111661911,-0.15068481862545013,0.1983131468296051,0.10630720853805542,-0.18179458379745483,11.53699779510498
175808,2871065,0.2735461979166667,26.516183853149414,0.08679703623056412,-0.12410203367471695,0.18305811285972595,2.3523364067077637,-0.1337612420320511,9.730228424072266
176327,2871584,0.2740533854166667,26.58251953125,0.1039925217628479,-0.12387625128030777,0.188558891415596,-2.416627883911133,-0.6306741237640381,11.653425216674805
176357,2871614,0.27458947916666665,26.57861328125,0.10526600480079651,-0.03329728543758392,0.21040472388267517,-2.74155855178833,1.0265228748321533,12.338865280151367
176815,2872072,0.2751265625,26.57861328125,0.0766260176897049,-0.005370819941163063,0.2574916183948517,1.6162303686141968,0.1289684772491455,11.38833999633789
177365,2872622,0.2756208333333333,26.59933090209961,0.04789536073803902,-0.0795351192355156,0.28631362318992615,3.4779324531555176,-1.855386734008789,9.625814437866211
177822,2873079,0.2761327604166667,26.57861328125,0.07043275237083435,-0.0569039061665535,0.28011319041252136,0.8768638372421265,-0.6569122672080994,9.23833179473877
178341,2873598,0.27667005208333334,26.57861328125,0.1279386281967163,0.022339127957820892,0.2576943635940552,-1.4283771514892578,-1.6920363903045654,8.732324600219727
178890,2874147,0.27720635416666667,26.57861328125,0.1259072721004486,-0.03428976982831955,0.24158141016960144,0.341616690158844,-1.565730333328247,6.522862434387207
179409,2874666,0.277744375,26.57861328125,0.07977622747421265,-0.12709484994411469,0.242374449968338,-0.8448883295059204,-0.9272938370704651,8.476297378540039
179928,2875185,0.2782821875,26.57861328125,0.0560666099190712,-0.0966336578130722,0.2613624334335327,-1.1513309478759766,0.8120050430297852,10.86790657043457
181515,2876772,0.2787871875,26.56026840209961,0.04579902067780495,-0.08895722776651382,0.280894935131073,1.9711816310882568,0.36625003814697266,11.39201545715332
182064,2877321,0.27928703125,26.58154296875,0.040114011615514755,-0.1284509301185608,0.28320223093032837,2.445585012435913,-0.6007299423217773,10.817684173583984
182461,2877718,0.2797880208333333,26.581472396850586,0.051546476781368256,-0.054995834827423096,0.2708488404750824,-2.004246234893799,0.5333219766616821,11.812911033630371
182552,2877809,0.28029390625,26.58154296875,0.0535520501434803,0.058263108134269714,0.27272260189056396,-2.700249195098877,0.08075326681137085,11.986949920654297
183071,2878328,0.280830625,26.58154296875,0.012564688920974731,0.02317257970571518,0.30055028200149536,1.1989171504974365,-1.311431884765625,9.850858688354492
183102,2878359,0.28134760416666665,26.58426284790039,-0.03386307507753372,-0.05758354067802429,0.3264562487602234,2.085881233215332,-0.9500994682312012,8.17825698852539
183590,2878847,0.28181213541666666,26.58370590209961,-0.0400933139026165,-0.011068896390497684,0.3261913061141968,0.9850978851318359,-0.7120720148086548,9.350000381469727
184109,2879366,0.28230796875,26.58154296875,-0.027367575094103813,0.07686068117618561,0.30516892671585083,0.46484091877937317,-0.3003411889076233,9.93980884552002
184567,2879824,0.28280973958333333,26.51171875,-0.023103907704353333,0.0799904316663742,0.2817513346672058,0.10287965834140778,-0.4144304394721985,9.386238098144531
185085,2880342,0.28331109375,26.58154296875,-0.030233066529035568,0.06291475892066956,0.27863043546676636,-0.5808593034744263,-0.09135342389345169,10.259199142456055
185635,2880892,0.28388244791666667,26.63448715209961,-0.04490147531032562,0.07813765108585358,0.29996615648269653,-0.8484331369400024,0.8977890014648438,11.258092880249023
187069,2882326,0.2843425,26.58370590209961,-0.0666980892419815,0.052963629364967346,0.31967413425445557,1.3551883697509766,-0.0119045190513134,10.387619018554688
187222,2882479,0.2848540104166667,26.5791015625,-0.08181935548782349,0.004324687644839287,0.33008837699890137,2.856325626373291,-0.58189857006073,9.388267517089844
187679,2882936,0.28542015625,26.589284896850586,-0.06268123537302017,0.0349530391395092,0.31831270456314087,0.06799516081809998,-0.14876966178417206,9.516544342041016
187710,2882967,0.28595489583333333,26.580915451049805,-0.030019719153642654,0.11123304814100266,0.3005533814430237,-0.6567642688751221,-0.1584295928478241,9.646242141723633
188198,2883455,0.28641802083333334,26.59375,-0.024900980293750763,0.09355300664901733,0.304897665977478,0.19136030972003937,-0.7041562795639038,9.186896324157715
188717,2883974,0.28693484375,26.5830078125,-0.036963172256946564,0.020600710064172745,0.3201063275337219,1.3596464395523071,-0.2820681035518646,9.171684265136719
189236,2884493,0.28747104166666665,26.5830078125,-0.03331475704908371,0.006050276570022106,0.3325174152851105,1.3132121562957764,0.1829061508178711,9.959768295288086
189724,2884981,0.2880069270833333,26.58837890625,-0.021981321275234222,0.01372968778014183,0.332902729511261,1.940063238143921,-0.004753636196255684,9.943380355834961
190273,2885530,0.28854515625,26.591796875,-0.008571038022637367,0.006439154967665672,0.3247636556625366,1.295233964920044,-0.1433265507221222,9.720086097717285
190762,2886019,0.28908114583333333,26.591796875,0.007454941980540752,0.026000119745731354,0.3169524073600769,-0.6877306699752808,0.32689058780670166,9.913568496704102
191830,2887087,0.2896203125,26.591796875,0.014300553128123283,0.04604283720254898,0.32572638988494873,-0.4959036707878113,0.14537139236927032,10.089921951293945
192348,2887605,0.29015526041666667,26.591796875,0.007146051153540611,0.010051319375634193,0.3456091284751892,1.0395631790161133,-0.28505533933639526,9.388081550598145
192837,2888094,0.29069359375,26.591796875,0.005376656539738178,-0.030409613624215126,0.35299187898635864,1.5376365184783936,-0.18031126260757446,9.204137802124023
192867,2888124,0.2912269791666667,26.591796875,0.019685082137584686,-0.009169764816761017,0.3491307199001312,0.6040055751800537,-0.08550532162189484,9.799530029296875
193386,2888643,0.29173505208333333,26.620534896850586,0.03257724642753601,0.023347157984972,0.34215861558914185,0.010930873453617096,0.08597120642662048,9.914318084716797
193874,2889131,0.29223489583333334,26.595703125,0.028386510908603668,0.014951255172491074,0.34219908714294434,-0.0398360937833786,0.0009620623895898461,9.942466735839844
194424,2889681,0.2927372395833333,26.5703125,0.014686629176139832,0.0008888194570317864,0.35659360885620117,-0.21040774881839752,0.27739089727401733,10.113100051879883
194912,2890169,0.29323953125,26.595703125,0.003971197176724672,0.0021458310075104237,0.37423887848854065,-0.07285089045763016,0.4097685217857361,10.182028770446777
195522,2890779,0.29377739583333334,26.595703125,-0.0006380236591212451,0.006216487847268581,0.3832811117172241,0.4539561867713928,0.1330181062221527,10.112499237060547
195888,2891145,0.29428026041666666,26.60323715209961,0.002759788418188691,0.017179280519485474,0.3814600110054016,-0.11820543557405472,0.2306271642446518,9.886871337890625
197475,2892732,0.2947822395833333,26.595703125,0.00575194600969553,0.0415470227599144,0.38062137365341187,-0.3266356587409973,-0.0367308184504509,10.138287544250488
198055,2893312,0.29528916666666666,26.527902603149414,-0.003842233680188656,0.054580532014369965,0.3903675973415375,-0.37057802081108093,0.126516193151474,9.945345878601074
198513,2893770,0.2957900520833333,26.595703125,-0.024888593703508377,0.03809820115566254,0.4024553894996643,0.3422589898109436,-0.1027948334813118,9.86259651184082
198543,2893800,0.29632427083333335,26.5947265625,-0.04484287649393082,0.02177181839942932,0.4143589735031128,0.8642911911010742,-0.22130152583122253,9.747660636901855
198940,2894197,0.29682583333333334,26.59207534790039,-0.04800419509410858,0.030327212065458298,0.4173322021961212,0.3528660833835602,0.14388686418533325,9.628677368164062
199062,2894319,0.29733052083333333,26.603515625,-0.03764604777097702,0.05324118584394455,0.4115965962409973,-0.3003696799278259,0.12836012244224548,9.739511489868164
199550,2894807,0.29786859375,26.603515625,-0.030844029039144516,0.061839692294597626,0.4135468006134033,-0.2785291075706482,-0.07660669088363647,9.91567325592041
200100,2895357,0.29836135416666665,26.655691146850586,-0.02953099086880684,0.049216270446777344,0.4225010871887207,-0.07100053876638412,-0.11435911804437637,9.563051223754883
200588,2895845,0.29887395833333336,26.603515625,-0.02761620283126831,0.03678314760327339,0.42897361516952515,0.2870092988014221,-0.2680407762527466,9.792415618896484
201107,2896364,0.29941114583333334,26.603515625,-0.023989617824554443,0.028932388871908188,0.4312146008014679,0.8422735929489136,-0.17389854788780212,9.662837028503418
202236,2897493,0.2999475,26.603515625,-0.017842520028352737,0.02258644811809063,0.4293501079082489,0.7656611204147339,-0.31471017003059387,9.535341262817383
202724,2897981,0.30048484375,26.603515625,-0.011648014187812805,0.024572424590587616,0.4254359006881714,0.15324518084526062,-0.3266444802284241,9.615497589111328
202785,2898042,0.30102083333333335,26.603515625,-0.008403489366173744,0.023490000516176224,0.42028647661209106,-0.49539846181869507,-0.01471584290266037,9.500707626342773
203243,2898500,0.3015567708333333,26.603515625,-0.010329518467187881,0.003018733346834779,0.42133599519729614,-0.702724277973175,-0.34963345527648926,9.43266487121582
203701,2898958,0.30207348958333335,26.61551284790039,-0.014004439115524292,-0.026628538966178894,0.43234243988990784,0.5229361653327942,-0.5988848209381104,9.6106538772583
204250,2899507,0.30256515625,26.60595703125,-0.0019247422460466623,-0.03798458352684975,0.43494704365730286,0.3465697169303894,-0.05553078651428223,9.339057922363281
204738,2899995,0.30307557291666665,26.604352951049805,0.02201964519917965,-0.014423198997974396,0.4282509684562683,-0.04765968397259712,0.2795810103416443,9.859094619750977
205318,2900575,0.3035715104166667,26.60302734375,0.035730935633182526,0.008562225848436356,0.42895328998565674,-0.07706813514232635,-0.299988329410553,10.254497528076172
205806,2901063,0.30410786458333333,26.60302734375,0.0328206866979599,-0.0009437521803192794,0.4302351772785187,-0.015532158315181732,-0.4418494999408722,9.908510208129883
206295,2901552,0.3046129166666667,26.608816146850586,0.022949619218707085,-0.016538701951503754,0.42360830307006836,-0.23806384205818176,-0.24918848276138306,9.859418869018555
207363,2902620,0.30507682291666666,26.578683853149414,0.009246754460036755,-0.016976941376924515,0.4258979558944702,-0.22720059752464294,-0.12981419265270233,9.971390724182129
207882,2903139,0.3055828125,26.60009765625,-0.0037347774486988783,-0.014247056096792221,0.436867356300354,-0.04607897996902466,-0.23325097560882568,9.89529800415039
207912,2903169,0.3061188020833333,26.60009765625,-0.0033454550430178642,-0.01375291496515274,0.4328158497810364,-0.15754853188991547,-0.04849015921354294,9.646923065185547
208370,2903627,0.30665583333333335,26.60009765625,0.01021943986415863,0.008053946308791637,0.41890084743499756,-0.9081209301948547,0.14813350141048431,9.94216537475586
208889,2904146,0.30715723958333335,26.534040451049805,0.018324963748455048,0.04122515022754669,0.4222649335861206,-1.0231354236602783,0.07067638635635376,10.135900497436523
209377,2904634,0.30766317708333335,26.60009765625,0.008269157260656357,0.04077574238181114,0.4336417317390442,-0.6631688475608826,-0.07208455353975296,10.054688453674316
210353,2905610,0.30819890625,26.60009765625,-0.014692769385874271,0.003286499995738268,0.4346700608730316,0.8224728107452393,-0.2773556709289551,10.056607246398926
210414,2905671,0.3086931770833333,26.618303298950195,-0.025313306599855423,-0.00610954686999321,0.43812185525894165,1.1499850749969482,-0.1279335469007492,9.510603904724121
210933,2906190,0.30920552083333336,26.59619140625,-0.01786953955888748,0.03677510470151901,0.44131407141685486,0.5659201145172119,0.11644348502159119,10.129483222961426
211910,2907167,0.30974375,26.59619140625,-0.009785735979676247,0.07514212280511856,0.42715001106262207,-0.8142774701118469,0.5051109194755554,9.99119758605957
212551,2907808,0.31027817708333333,26.59619140625,-0.016342319548130035,0.06259515881538391,0.4130362272262573,-0.7957056760787964,-0.10665954649448395,9.780250549316406
213069,2908326,0.31077234375,26.64453125,-0.030866771936416626,0.038143597543239594,0.42529821395874023,-0.6343751549720764,-0.29372429847717285,9.758600234985352
213558,2908815,0.31128541666666665,26.59619140625,-0.036593351513147354,0.029662568122148514,0.4303818941116333,-0.19739282131195068,0.2579917311668396,9.941102981567383
213588,2908845,0.3118213541666667,26.59619140625,-0.036936961114406586,0.015618693083524704,0.4166026711463928,1.2394376993179321,0.39370566606521606,9.577156066894531
214046,2909303,0.31235833333333335,26.59619140625,-0.03240733593702316,0.007824882864952087,0.4141835570335388,1.5332229137420654,-0.2058439552783966,9.520296096801758
214565,2909822,0.31289479166666667,26.59619140625,-0.015870269387960434,0.03871813043951988,0.41089239716529846,0.23374596238136292,0.16897951066493988,9.825231552124023
215084,2910341,0.3134340104166667,26.59228515625,0.0035210996866226196,0.07228976488113403,0.38944363594055176,-1.081362247467041,0.3160235583782196,9.798752784729004
215633,2910890,0.31396833333333335,26.59228515625,0.001800673664547503,0.06114518642425537,0.3819796144962311,-0.5683799982070923,-0.03466995060443878,9.719943046569824
216121,2911378,0.3145061458333333,26.583984375,-0.01571459323167801,0.022148458287119865,0.3986518383026123,0.011601518839597702,-0.11088372766971588,9.668968200683594
216640,2911897,0.31501640625,26.583147048950195,-0.023447614163160324,-0.001485350076109171,0.40047532320022583,0.6253489255905151,0.08600255846977234,9.711921691894531
217739,2912996,0.31551223958333335,26.583984375,-0.015889445319771767,-0.0046688709408044815,0.38645368814468384,0.9310144186019897,0.05330950766801834,9.529870986938477
218227,2913484,0.31601432291666665,26.587053298950195,-0.004195977933704853,0.008677810430526733,0.37993547320365906,0.5170269012451172,-0.5056416988372803,9.842805862426758
218624,2913881,0.31651666666666667,26.583984375,0.00567177589982748,0.03234914690256119,0.3732289969921112,-0.3831825852394104,0.05622359365224838,9.9656343460083
218746,2914003,0.31705505208333334,26.583984375,0.00789935328066349,0.0346435084939003,0.35900598764419556,-1.0209531784057617,0.2752055525779724,9.79652214050293
219234,2914491,0.31756875,26.563058853149414,-0.006878518499433994,0.006644674576818943,0.3657066226005554,-0.07926160097122192,-0.36262351274490356,9.7344331741333
219722,2914979,0.31805979166666665,26.583984375,-0.018836215138435364,-0.019953113049268723,0.3810974955558777,0.5576817989349365,-0.38116854429244995,9.609302520751953
220241,2915498,0.31856640625,26.520090103149414,-0.006819912698119879,-0.01645292341709137,0.3696666955947876,0.13332633674144745,-0.007425960153341293,9.481679916381836
220760,2916017,0.3190675,26.583984375,0.013127387501299381,0.010761242359876633,0.35473936796188354,-0.08932331204414368,-0.3097274899482727,9.813346862792969
221279,2916536,0.31960239583333333,26.5830078125,0.01939447596669197,0.028540324419736862,0.35811159014701843,-0.2155352085828781,-0.4781312048435211,10.055793762207031
221797,2917054,0.3201059895833333,26.59375,0.011795849539339542,0.018877945840358734,0.355740487575531,-0.3033198118209839,-0.12016665190458298,9.993335723876953
222896,2918153,0.3206090104166667,26.58056640625,-0.0019766264595091343,0.0016620138194411993,0.3486434817314148,-0.14390398561954498,-0.026735229417681694,9.872751235961914
223384,2918641,0.32111421875,26.584821701049805,-0.015064772218465805,-0.006180970463901758,0.3563389182090759,0.43273022770881653,-0.42497384548187256,9.849178314208984
223842,2919099,0.3216175520833333,26.58056640625,-0.014720520004630089,-0.0005774432793259621,0.35923126339912415,0.11448293179273605,-0.3649801015853882,9.73028564453125
223903,2919160,0.32215390625,26.58056640625,0.0020074157509952784,0.01927446573972702,0.33924639225006104,-0.6749791502952576,0.08775541186332703,9.65106201171875
224361,2919618,0.32264984375,26.631696701049805,0.013401849195361137,0.03700470179319382,0.32875972986221313,-0.6853386163711548,-0.013725098222494125,9.860551834106445
224910,2920167,0.3231588020833333,26.5849609375,0.007890250533819199,0.0359496995806694,0.33913087844848633,-0.20390799641609192,-0.29033833742141724,10.09398078918457
225398,2920655,0.3236952604166667,26.5849609375,-0.004181269556283951,0.01600005477666855,0.3416116535663605,0.19475039839744568,-0.04544860124588013,9.889610290527344
226009,2921266,0.3242332291666667,26.5849609375,-0.010399454273283482,0.0019180208910256624,0.3283291459083557,0.45604801177978516,0.007457784377038479,9.715810775756836
226497,2921754,0.32476963541666665,26.5849609375,-0.011910000815987587,0.011921347118914127,0.32538264989852905,0.3600228428840637,-0.22588759660720825,9.870007514953613
226894,2922151,0.32526546875,26.60546875,-0.00788478646427393,0.030551493167877197,0.32338982820510864,-0.2555655241012573,-0.0038242032751441,9.805715560913086
228053,2923310,0.32577520833333334,26.5927734375,-0.001859229989349842,0.0366821214556694,0.3090353310108185,-0.7458187937736511,0.23914839327335358,9.699522018432617
228572,2923829,0.3263127604166667,26.5927734375,-0.0019655972719192505,0.031304731965065,0.3032684326171875,-0.6134669780731201,-0.011434640735387802,9.772563934326172
228938,2924195,0.3268050520833333,26.598215103149414,-0.006544680334627628,0.021964404731988907,0.31241053342819214,-0.05101028457283974,-0.1767106056213379,9.846593856811523
229060,2924317,0.3273169270833333,26.5927734375,-0.007724132388830185,0.011699838563799858,0.31063345074653625,0.20070941746234894,0.12191063910722733,9.69262981414795
229579,2924836,0.3278551041666667,26.5927734375,-0.00409642793238163,0.008271782658994198,0.29949894547462463,0.4613158106803894,-0.05818299204111099,9.681811332702637
230098,2925355,0.3283931770833333,26.5927734375,0.000295395206194371,0.018430888652801514,0.2974623143672943,0.3448737859725952,-0.3323458433151245,9.852010726928711
230586,2925843,0.32892822916666664,26.5927734375,0.0038542337715625763,0.030177943408489227,0.29151660203933716,-0.22553785145282745,0.014066077768802643,9.899901390075684
231135,2926392,0.32946427083333335,26.5927734375,0.003198416670784354,0.028432080522179604,0.27839118242263794,-0.6239967346191406,0.2147846519947052,9.726923942565918
231624,2926881,0.33000109375,26.5927734375,-0.005250419490039349,0.012922358699142933,0.2813851237297058,-0.22764548659324646,-0.2333146333694458,9.743610382080078
232143,2927400,0.33050734375,26.530134201049805,-0.009648781269788742,-0.0006118956953287125,0.2859155237674713,-0.014146409928798676,0.07819384336471558,9.66362190246582
233241,2928498,0.3310075520833333,26.5966796875,-0.0012735717464238405,-0.002671963768079877,0.27389782667160034,-0.08684226870536804,0.2767511010169983,9.556856155395508
233760,2929017,0.33154453125,26.6015625,0.01133720576763153,0.007828340865671635,0.2652270793914795,0.11233864724636078,-0.030966775491833687,9.735426902770996
233821,2929078,0.33205427083333333,26.578125,0.01716240867972374,0.016819648444652557,0.26544439792633057,0.07289786636829376,-0.11610095202922821,9.8660888671875
234279,2929536,0.3325516145833333,26.6015625,0.0181014072149992,0.018214911222457886,0.2548423409461975,-0.2856934666633606,0.09807029366493225,9.897035598754883
234767,2930024,0.33308791666666665,26.6015625,0.012227287515997887,0.011277562007308006,0.2431851625442505,-0.4354998469352722,0.1878761649131775,9.815835952758789
235286,2930543,0.33358875,26.606027603149414,-0.002027238951995969,-0.003516920143738389,0.24644315242767334,0.06346232444047928,-0.22600212693214417,9.806979179382324
235774,2931031,0.3340925,26.6015625,-0.010867325589060783,-0.017086079344153404,0.24780242145061493,0.12969845533370972,-0.15793396532535553,9.606149673461914
236262,2931519,0.3346292708333333,26.6015625,-0.001791549613699317,-0.012938047759234905,0.23082154989242554,-0.3040492534637451,0.038801297545433044,9.572983741760254
236842,2932099,0.33513703125,26.65066909790039,0.010554244741797447,0.0019917504396289587,0.21691694855690002,-0.5273342132568359,-0.17370571196079254,9.768411636352539
237330,2932587,0.335636875,26.6015625,0.013385128229856491,0.003916330169886351,0.2147616297006607,-0.25540828704833984,-0.19092026352882385,9.844722747802734
239985,2935242,0.3361738020833333,26.6015625,0.009654602035880089,-0.012997075915336609,0.2082303762435913,-0.07841680943965912,-0.09563508629798889,9.765201568603516
241389,2936646,0.33667708333333335,26.608259201049805,0.006036809645593166,-0.026590406894683838,0.20079518854618073,0.2124301642179489,-0.2166036069393158,9.719282150268555
241542,2936799,0.33717901041666665,26.60595703125,0.005492838565260172,-0.0265427865087986,0.19770447909832,0.32713979482650757,-0.3208557367324829,9.760419845581055
241908,2937165,0.33771385416666666,26.60595703125,0.010343525558710098,-0.02171090617775917,0.18706859648227692,-0.0776730477809906,-0.11409005522727966,9.665006637573242
242030,2937287,0.33821703125,26.61104965209961,0.017497064545750618,-0.019211579114198685,0.1721818596124649,-0.4840521216392517,-0.09541100263595581,9.671065330505371
242488,2937745,0.33872140625,26.60595703125,0.01915241777896881,-0.020621370524168015,0.1667143702507019,-0.5763939619064331,-0.15007618069648743,9.761258125305176
242549,2937806,0.33925802083333334,26.60595703125,0.016036884859204292,-0.033946432173252106,0.16371488571166992,-0.2988564074039459,0.028182735666632652,9.736150741577148
243464,2938721,0.33976703125,26.61160659790039,0.012965118512511253,-0.050194356590509415,0.15720468759536743,0.03130928426980972,-0.013301011174917221,9.61629867553711
243617,2938874,0.34026484375,26.60498046875,0.014101454056799412,-0.05589854717254639,0.15164583921432495,0.25786513090133667,-0.07176632434129715,9.665771484375
244075,2939332,0.34080369791666665,26.60498046875,0.019557740539312363,-0.051750391721725464,0.1445336639881134,0.05759217217564583,-0.09070732444524765,9.743200302124023
244105,2939362,0.341305,26.625,0.024761585518717766,-0.04647914320230484,0.13195478916168213,-0.2682890295982361,-0.022086497396230698,9.76373291015625
244563,2939820,0.3418118229166667,26.60498046875,0.02515036053955555,-0.04823450371623039,0.12164365500211716,-0.3760046362876892,-0.014865045435726643,9.84498405456543
244593,2939850,0.342303125,26.539621353149414,0.02082805335521698,-0.05405954271554947,0.11913171410560608,-0.29404330253601074,-0.17321836948394775,9.909540176391602
244990,2940247,0.3428147916666667,26.599609375,0.01709645241498947,-0.059378910809755325,0.11564825475215912,-0.14403219521045685,-0.1476013958454132,9.824125289916992
245112,2940369,0.3433510416666667,26.599609375,0.01925843209028244,-0.06076705828309059,0.1057140901684761,-0.1072663888335228,-0.28937482833862305,9.75238037109375
245601,2940858,0.34388833333333335,26.599609375,0.025024350732564926,-0.05140107125043869,0.09747214615345001,-0.058419473469257355,-0.3047674894332886,9.82468032836914
246150,2941407,0.3444232291666667,26.599609375,0.029003795236349106,-0.04239936172962189,0.09051438421010971,-0.22777514159679413,-0.18610946834087372,9.825920104980469
246608,2941865,0.3449625520833333,26.599609375,0.025656942278146744,-0.04447714239358902,0.08152938634157181,-0.17072856426239014,-0.2199954092502594,9.816995620727539
247187,2942444,0.3454690625,26.57589340209961,0.020031696185469627,-0.05525892972946167,0.07418402284383774,-0.12754474580287933,-0.11495104432106018,9.696870803833008
247676,2942933,0.3459668229166667,26.599609375,0.01587211713194847,-0.06388351321220398,0.0669703558087349,-0.13663028180599213,-0.2059621810913086,9.665437698364258
248713,2943970,0.34650447916666666,26.599609375,0.015453721396625042,-0.06701378524303436,0.05786348506808281,-0.1442185491323471,-0.12582525610923767,9.632132530212402
249232,2944489,0.34700916666666665,26.601003646850586,0.01929808408021927,-0.07117815315723419,0.04654347896575928,-0.19604042172431946,-0.07678170502185822,9.584815979003906
249263,2944520,0.34750911458333333,26.599609375,0.02401794120669365,-0.07832935452461243,0.03669770061969757,0.03290439024567604,-0.060100749135017395,9.690546989440918
249720,2944977,0.3480447916666667,26.60400390625,0.026692237704992294,-0.08451861143112183,0.029666293412446976,0.19056709110736847,-0.044234927743673325,9.834574699401855
250209,2945466,0.3485436979166667,26.645090103149414,0.02912745624780655,-0.08709600567817688,0.02111806534230709,0.3571884036064148,-0.14938414096832275,9.875715255737305
250819,2946076,0.3490521875,26.595703125,0.03389124572277069,-0.08520675450563431,0.011053439229726791,0.47569119930267334,-0.19345110654830933,9.832589149475098
251277,2946534,0.3495903645833333,26.595703125,0.04140382632613182,-0.07401055097579956,0.003032431472092867,0.18224772810935974,-0.12885624170303345,9.914587020874023
251765,2947022,0.3501257291666667,26.595703125,0.0481405109167099,-0.06023569032549858,-0.001752633834257722,-0.01020176149904728,-0.06333006918430328,9.96212387084961
252314,2947571,0.35066255208333336,26.595703125,0.05049561709165573,-0.059637218713760376,-0.0047182347625494,0.12387651205062866,-0.16964459419250488,9.87491226196289
252833,2948090,0.35119796875,26.595703125,0.04951319098472595,-0.0656261295080185,-0.005830338224768639,0.21277639269828796,-0.2417309582233429,9.735210418701172
254359,2949616,0.3517018229166667,26.59933090209961,0.049709007143974304,-0.06230054795742035,-0.006171317305415869,0.21580052375793457,-0.25618138909339905,9.805721282958984
254878,2950135,0.35220661458333336,26.595703125,0.051040831953287125,-0.053800951689481735,-0.006087847985327244,0.16634511947631836,-0.12251804769039154,9.902259826660156
255000,2950257,0.35274260416666664,26.595703125,0.04844219982624054,-0.049287304282188416,-0.005639847368001938,0.16602516174316406,-0.2426130324602127,9.986814498901367
255366,2950623,0.3532790625,26.595703125,0.04197506606578827,-0.046233825385570526,-0.003361291717737913,0.19267529249191284,-0.12448909878730774,10.058876991271973
255519,2950776,0.35378359375,26.523996353149414,0.03623943403363228,-0.03919004276394844,0.0003335264336783439,0.025511708110570908,-0.05930300056934357,10.150609016418457
255976,2951233,0.3542838541666667,26.5927734375,0.02970249392092228,-0.02830858901143074,0.004854770842939615,0.15813717246055603,-0.17926140129566193,10.190719604492188
256495,2951752,0.35479244791666664,26.609375,0.022722311317920685,-0.021257411688566208,0.009361254051327705,0.189390167593956,-0.09387356042861938,10.000692367553711
256983,2952240,0.35529208333333334,26.59912109375,0.017398197203874588,-0.015125684440135956,0.01174781285226345,0.1421303004026413,-0.14853662252426147,9.945219039916992
257533,2952790,0.35582744791666665,26.59912109375,0.012284805998206139,-0.0036433504428714514,0.015527436509728432,0.30332785844802856,-0.07492531090974808,9.980327606201172
258021,2953278,0.3563415625,26.627790451049805,0.006919208448380232,0.0033139055594801903,0.01810852810740471,0.37543952465057373,-0.009492116048932076,9.969223022460938
259120,2954377,0.3568040625,26.604909896850586,0.0010514094028621912,0.00669778510928154,0.018460039049386978,0.4119832515716553,-0.10338453948497772,9.911094665527344
259638,2954895,0.35730369791666666,26.60107421875,-0.0024716819170862436,0.011801153421401978,0.018805112689733505,0.30134814977645874,-0.08355893194675446,9.925573348999023
259669,2954926,0.35780734375,26.606027603149414,-0.004026344977319241,0.017924709245562553,0.019511602818965912,0.1929386556148529,-0.033126652240753174,9.95588493347168
260127,2955384,0.35834479166666666,26.57645034790039,-0.007010023109614849,0.01873980462551117,0.0204465351998806,0.368348628282547,-0.08231905102729797,9.914430618286133
260615,2955872,0.35888078125,26.606027603149414,-0.011002594605088234,0.014273653738200665,0.019670244306325912,0.48384180665016174,-0.1183028519153595,9.844058990478516
261073,2956330,0.35934229166666665,26.57645034790039,-0.012793018482625484,0.012344954535365105,0.01661457121372223,0.5116925239562988,-0.15519055724143982,9.766830444335938
261622,2956879,0.35985364583333335,26.59765625,-0.010718781501054764,0.014094283804297447,0.01180475577712059,0.4318805932998657,-0.2114298939704895,9.753138542175293
262141,2957398,0.3603899479166667,26.59765625,-0.007924554869532585,0.016350768506526947,0.008170212619006634,0.2165655791759491,-0.2837643027305603,9.73333740234375
262660,2957917,0.3608777604166667,26.64620590209961,-0.007210424169898033,0.014312916435301304,0.005449844524264336,0.23150041699409485,-0.22527645528316498,9.686260223388672
263178,2958435,0.3613968229166667,26.59765625,-0.0071656908839941025,0.007379553746432066,0.0032247090712189674,0.217361718416214,-0.2155008763074875,9.69809341430664
264277,2959534,0.3619321354166667,26.59765625,-0.006096929311752319,0.0012575779110193253,9.170504927169532e-05,0.43876945972442627,-0.23097309470176697,9.747457504272461
264765,2960022,0.3624703125,26.59765625,-0.0032843635417521,-0.0023723370395600796,-0.003983551636338234,0.41855132579803467,-0.16881820559501648,9.731067657470703
264826,2960083,0.36300703125,26.59765625,0.0004592744226101786,-0.0039319926872849464,-0.009465939365327358,0.12953311204910278,-0.1998758316040039,9.733243942260742
265254,2960511,0.3635422916666667,26.59765625,0.003295639529824257,-0.005299651063978672,-0.013367695733904839,-0.00471735093742609,-0.09742741286754608,9.751908302307129
265742,2960999,0.3640791666666667,26.59765625,0.00584926875308156,-0.008897594176232815,-0.01513223722577095,-0.0819874033331871,-0.1300908327102661,9.74907112121582
266261,2961518,0.36461661458333333,26.59765625,0.007627783343195915,-0.0140269435942173,-0.015137763693928719,0.17308646440505981,-0.2548587918281555,9.752876281738281
266779,2962036,0.36511385416666664,26.526227951049805,0.008506091311573982,-0.017411168664693832,-0.0144502567127347,0.11032943427562714,-0.35274678468704224,9.755544662475586
267298,2962555,0.36562119791666664,26.59716796875,0.010056952014565468,-0.016472939401865005,-0.013371501117944717,0.01998085528612137,-0.20071187615394592,9.788275718688965
267817,2963074,0.366158125,26.59716796875,0.011132311075925827,-0.014131233096122742,-0.01180877536535263,-0.08381076157093048,-0.30529263615608215,9.864980697631836
268336,2963593,0.36669666666666667,26.59716796875,0.009637204930186272,-0.013108897022902966,-0.009350022301077843,-0.017146142199635506,-0.23518337309360504,9.878150939941406
269434,2964691,0.36723369791666666,26.59716796875,0.007848570123314857,-0.014074130915105343,-0.006788209546357393,-0.0020316988229751587,-0.31525665521621704,9.880282402038574
270319,2965576,0.3677447395833333,26.59375,0.006897536106407642,-0.011624782346189022,-0.0031033894047141075,-0.008444211445748806,-0.3743051290512085,9.86720085144043
270441,2965698,0.36823890625,26.59716796875,0.006905066780745983,-0.007630097679793835,0.0013697363901883364,-0.013999491930007935,-0.28407567739486694,9.80048942565918
270502,2965759,0.3687771354166667,26.59716796875,0.007214810699224472,-0.0063963644206523895,0.004364089109003544,-0.003977816551923752,-0.29636114835739136,9.76824951171875
270960,2966217,0.369279375,26.6015625,0.007346039637923241,-0.0054824864491820335,0.007006536237895489,0.03877505660057068,-0.18020984530448914,9.779655456542969
271479,2966736,0.36978192708333335,26.59716796875,0.006575318984687328,-0.0049148667603731155,0.009686770848929882,0.16417045891284943,-0.13372738659381866,9.830537796020508
271998,2967255,0.3703178125,26.59716796875,0.005624789744615555,-0.0050536273047327995,0.011139611713588238,0.2130572348833084,-0.1138320341706276,9.86037826538086
272517,2967774,0.3708303125,26.61104965209961,0.005462946370244026,-0.004581067711114883,0.0110501479357481,0.18102292716503143,-0.0811016708612442,9.842424392700195
273005,2968262,0.37132619791666666,26.59716796875,0.005429781973361969,-0.002595420926809311,0.010604523122310638,0.10250727832317352,-0.08944354951381683,9.817514419555664
273524,2968781,0.3718378125,26.63671875,0.0061454689130187035,-0.0018306763377040625,0.01010480709373951,0.06885291635990143,-0.0789051204919815,9.775086402893066
274653,2969910,0.37233229166666665,26.58935546875,0.006334125995635986,-0.003275467548519373,0.009924620389938354,0.16923320293426514,-0.0895967185497284,9.74969482421875
275141,2970398,0.372830625,26.563058853149414,0.005754501558840275,-0.0059942929074168205,0.008711488917469978,0.27230918407440186,-0.06024932488799095,9.731399536132812
275202,2970459,0.37333546875,26.58935546875,0.0066046398133039474,-0.007617133669555187,0.006806962192058563,0.30108004808425903,-0.06301649659872055,9.767053604125977
275660,2970917,0.3738725,26.58935546875,0.008055286481976509,-0.007441840134561062,0.004619494080543518,0.29205507040023804,-0.10530805587768555,9.79999828338623
276118,2971375,0.3744121875,26.5849609375,0.008151059970259666,-0.008029975928366184,0.0019912852440029383,0.2253444790840149,-0.11905774474143982,9.815296173095703
276667,2971924,0.3749104166666667,26.606584548950195,0.008586050942540169,-0.008950067684054375,-0.00012038895511068404,0.12789419293403625,-0.12643153965473175,9.821247100830078
277186,2972443,0.37541729166666665,26.58154296875,0.008238786831498146,-0.009737092070281506,-0.0008980015991255641,0.129792720079422,-0.15125200152397156,9.818450927734375
277704,2972961,0.37595328125,26.58154296875,0.007762323133647442,-0.011209078133106232,-0.0014301487244665623,0.18254628777503967,-0.20657074451446533,9.800786972045898
278162,2973419,0.37644635416666666,26.512834548950195,0.00844557210803032,-0.013418389484286308,-0.0030409405007958412,0.21951806545257568,-0.23843896389007568,9.776116371154785
278711,2973968,0.3769589583333333,26.58349609375,0.00912352092564106,-0.012722735293209553,-0.0034204283729195595,0.20850485563278198,-0.26667556166648865,9.799873352050781
279749,2975006,0.37749578125,26.58349609375,0.009964751079678535,-0.010096542537212372,-0.0030326242558658123,0.10274557024240494,-0.27827534079551697,9.815397262573242
280268,2975525,0.37803458333333334,26.58349609375,0.010782391764223576,-0.009897200390696526,-0.0031076506711542606,0.1292129009962082,-0.27047455310821533,9.82552719116211
280665,2975922,0.37856859375,26.58349609375,0.009887355379760265,-0.011897293850779533,-0.0022229535970836878,0.08595333993434906,-0.2553621530532837,9.84787368774414
280756,2976013,0.3790684375,26.582590103149414,0.008693136274814606,-0.01155906356871128,-0.0010170674649998546,0.1491626650094986,-0.21622160077095032,9.867871284484863
281275,2976532,0.37957520833333336,26.58349609375,0.00847343448549509,-0.010394490323960781,0.00040168571285903454,0.1313411146402359,-0.25870266556739807,9.84288215637207
281794,2977051,0.38006921875,26.58761215209961,0.009026573970913887,-0.00976545736193657,0.0012178497854620218,0.10984417051076889,-0.265005886554718,9.79855728149414
282313,2977570,0.38058046875,26.58349609375,0.009305819869041443,-0.008860702626407146,0.002492044121026993,0.08387947082519531,-0.18581721186637878,9.797072410583496
282801,2978058,0.3811186979166667,26.58349609375,0.009325489401817322,-0.007367629557847977,0.003752086777240038,0.09523260593414307,-0.22383806109428406,9.800914764404297
283411,2978668,0.3816572916666667,26.58349609375,0.008557277731597424,-0.008028894662857056,0.004730513319373131,0.1981908529996872,-0.13920480012893677,9.760677337646484
283808,2979065,0.38219182291666665,26.58349609375,0.007796312682330608,-0.01011226698756218,0.004748236387968063,0.1750800460577011,-0.1581851840019226,9.799920082092285
284967,2980224,0.38272697916666665,26.578125,0.007686101831495762,-0.008018684573471546,0.004822319373488426,0.19539165496826172,-0.09743732213973999,9.85249137878418
285517,2980774,0.38326463541666667,26.578125,0.007941328920423985,-0.0067411451600492,0.004747841041535139,0.15372753143310547,-0.11370500177145004,9.838172912597656
285975,2981232,0.3838022395833333,26.578125,0.007768288254737854,-0.007732141762971878,0.0036486871540546417,0.19439873099327087,-0.1437050700187683,9.836628913879395
286371,2981628,0.38432052083333335,26.579240798950195,0.007155310362577438,-0.00798938237130642,0.0032976828515529633,0.1203053891658783,-0.10228954255580902,9.815256118774414
286493,2981750,0.38485572916666666,26.627790451049805,0.006383419036865234,-0.006864587776362896,0.003328203223645687,0.17026573419570923,-0.15338227152824402,9.804496765136719
286982,2982239,0.38531755208333335,26.579240798950195,0.0062207551673054695,-0.007068485487252474,0.0028865300118923187,0.2239391803741455,-0.1185600608587265,9.771873474121094
287500,2982757,0.38578265625,26.555246353149414,0.006305399350821972,-0.008068827912211418,0.002015440259128809,0.2264840006828308,-0.12443345040082932,9.785637855529785
288019,2983276,0.3862846354166667,26.578125,0.006678360514342785,-0.007413212675601244,0.0003247847780585289,0.23132047057151794,-0.09320448338985443,9.840132713317871
288538,2983795,0.38678151041666664,26.512277603149414,0.006689970847219229,-0.006603800691664219,-0.000507263233885169,0.20122995972633362,-0.12728498876094818,9.847492218017578
289026,2984283,0.38728942708333336,26.578125,0.00492621585726738,-0.006552745588123798,-0.001651249942369759,0.20892764627933502,-0.14691151678562164,9.831304550170898
290155,2985412,0.3878259375,26.578125,0.003940891940146685,-0.006464959122240543,-0.001905482611618936,0.14916139841079712,-0.16012056171894073,9.833959579467773
291071,2986328,0.38832671875,26.587053298950195,0.003724191337823868,-0.0048952531069517136,-0.0018032391089946032,0.1353992074728012,-0.20417916774749756,9.822600364685059
291132,2986389,0.38883390625,26.58349609375,0.0028622406534850597,-0.004962611943483353,-0.0018978792941197753,0.1858115792274475,-0.20577995479106903,9.767484664916992
291162,2986419,0.38937078125,26.58349609375,0.0030069693457335234,-0.00665767677128315,-0.001946029718965292,0.19852760434150696,-0.25641047954559326,9.756555557250977
291620,2986877,0.38990901041666665,26.58349609375,0.0035865684039890766,-0.005059907212853432,-0.0014180706348270178,0.2020517885684967,-0.19542288780212402,9.81492805480957
292139,2987396,0.3904028125,26.58370590209961,0.0037262607365846634,-0.003590948414057493,-0.0014298299793154001,0.17719975113868713,-0.22338446974754333,9.84731388092041
292688,2987945,0.39091296875,26.58349609375,0.0030511440709233284,-0.00414121150970459,-0.001724854577332735,0.17184710502624512,-0.23647572100162506,9.829792976379395
293177,2988434,0.39144958333333335,26.58251953125,0.0029374035075306892,-0.004318199586123228,-0.0016550347208976746,0.0907924473285675,-0.20449799299240112,9.809101104736328
293665,2988922,0.391985,26.58447265625,0.003648048033937812,-0.004077468533068895,-0.000822409347165376,0.08483646810054779,-0.22827938199043274,9.814891815185547
294214,2989471,0.39247890625,26.60770034790039,0.004122372716665268,-0.00550103560090065,-0.00018928349891211838,0.15783986449241638,-0.20328451693058014,9.765359878540039
295282,2990539,0.39299140625,26.58447265625,0.004467184655368328,-0.007679840549826622,-0.00011054611240979284,0.1945495307445526,-0.2262912094593048,9.744943618774414
295801,2991058,0.39352791666666664,26.58447265625,0.0058585526421666145,-0.007285014726221561,-0.00022926698147784919,0.13927653431892395,-0.17769354581832886,9.77308464050293
296259,2991516,0.39406427083333334,26.58447265625,0.007746936287730932,-0.005929700098931789,-0.0007297528791241348,0.14090678095817566,-0.17883571982383728,9.800050735473633
296320,2991577,0.39460229166666666,26.58447265625,0.007986025884747505,-0.0067814430221915245,-0.0007071703439578414,0.12318123877048492,-0.16907502710819244,9.795120239257812
296808,2992065,0.39513885416666666,26.58447265625,0.007569863926619291,-0.007876116782426834,-0.0007694708183407784,0.10859838128089905,-0.13471505045890808,9.818292617797852
297754,2993011,0.39567447916666665,26.58447265625,0.007419408764690161,-0.008281126618385315,-0.0010006129741668701,0.12871882319450378,-0.14627954363822937,9.845865249633789
297907,2993164,0.39618729166666666,26.588727951049805,0.007525371387600899,-0.009038891643285751,-0.00097183499019593,0.1828833520412445,-0.16217045485973358,9.819246292114258
298303,2993560,0.3966822395833333,26.58447265625,0.0074724070727825165,-0.009392034262418747,-0.0008923443965613842,0.14672505855560303,-0.15175732970237732,9.819038391113281
299310,2994567,0.39721822916666666,26.58447265625,0.007454469799995422,-0.007467722054570913,-0.0003889148065354675,0.08910270035266876,-0.17262713611125946,9.808805465698242
299463,2994720,0.39772921875,26.6328125,0.0073070102371275425,-0.006764101795852184,-0.00016626360593363643,0.14437127113342285,-0.1432821899652481,9.783257484436035
300440,2995697,0.3982249479166667,26.58447265625,0.0065590133890509605,-0.007762146182358265,-0.00024334776389878243,0.16928887367248535,-0.16275149583816528,9.82115650177002
301325,2996582,0.39872661458333336,26.51953125,0.0066174836829304695,-0.007493680343031883,0.0003245007246732712,0.19012096524238586,-0.12620657682418823,9.841523170471191
301477,2996734,0.3992323958333333,26.58447265625,0.005994629114866257,-0.006586483679711819,0.000416569848312065,0.19298702478408813,-0.14558738470077515,9.839605331420898
301843,2997100,0.39976682291666665,26.5830078125,0.005494854412972927,-0.0062370942905545235,-0.00013755966210737824,0.17202678322792053,-0.1649896800518036,9.835639953613281
301996,2997253,0.40026848958333333,26.567522048950195,0.0051990654319524765,-0.005748380906879902,7.794236444169655e-05,0.13229751586914062,-0.1451551914215088,9.818853378295898
302484,2997741,0.4007765625,26.587890625,0.005024976097047329,-0.0044223591685295105,-2.9402206564554945e-05,0.1418222188949585,-0.1664188802242279,9.829343795776367
303003,2998260,0.4012717708333333,26.588727951049805,0.004150577820837498,-0.004330578725785017,-0.00030532365781255066,0.18112006783485413,-0.1638074368238449,9.801082611083984
303491,2998748,0.4017784375,26.587890625,0.0033028619363904,-0.00526840053498745,1.3779317669104785e-06,0.17628340423107147,-0.19215306639671326,9.784966468811035
304041,2999298,0.40231682291666665,26.587890625,0.0029711942188441753,-0.004474195186048746,0.0003437539271544665,0.18248751759529114,-0.18501460552215576,9.809955596923828
304559,2999816,0.40285625,26.587890625,0.0035714555997401476,-0.004130429122596979,-6.188049155753106e-05,0.1794571876525879,-0.1934908926486969,9.821859359741211
305627,3000884,0.40338875,26.587890625,0.0037443796172738075,-0.0044667948968708515,-8.058600360527635e-05,0.2004224956035614,-0.19714131951332092,9.847677230834961
306146,3001403,0.40392515625,26.587890625,0.0036699871998280287,-0.0036987068597227335,-0.000646619126200676,0.16013339161872864,-0.1789884716272354,9.84473991394043
306543,3001800,0.4044621875,26.587890625,0.00331519590690732,-0.0028605610132217407,-0.0007500565843656659,0.1519978642463684,-0.21213161945343018,9.846884727478027
306635,3001892,0.40496630208333334,26.58816909790039,0.002146901562809944,-0.0025964367669075727,0.0005989544442854822,0.1574305146932602,-0.2020343840122223,9.797264099121094
307153,3002410,0.4054697395833333,26.587890625,0.001334147877059877,-0.002741332398727536,0.0005715643637813628,0.14844071865081787,-0.21662667393684387,9.761104583740234
307672,3002929,0.40600552083333336,26.58837890625,0.0014587296172976494,-0.002649115165695548,0.0010280254064127803,0.1850174516439438,-0.2004411518573761,9.77695083618164
308221,3003478,0.40651463541666666,26.58984375,0.0023531601764261723,-0.002593322191387415,0.001044388161972165,0.20926478505134583,-0.1927698254585266,9.801778793334961
308679,3003936,0.40701140625,26.58056640625,0.003003491088747978,-0.0021555074490606785,0.0007150128949433565,0.20307183265686035,-0.18239988386631012,9.832856178283691
309198,3004455,0.40751911458333334,26.600446701049805,0.003539665602147579,-0.0013189194723963737,0.0006725285784341395,0.14624623954296112,-0.1925375759601593,9.865104675292969
309747,3005004,0.40801890625,26.58056640625,0.002289493102580309,-0.0008836483466438949,0.0011152930092066526,0.14278194308280945,-0.16790004074573517,9.84503173828125
310815,3006072,0.40852760416666667,26.50948715209961,0.001053632702678442,-0.0014674919657409191,0.0008583757444284856,0.15618190169334412,-0.18913182616233826,9.831172943115234
311761,3007018,0.4090241666666667,26.583984375,0.0006852259393781424,-0.0014796124305576086,0.0008687732624821365,0.18703730404376984,-0.15618008375167847,9.809293746948242
311914,3007171,0.40956171875,26.583984375,0.0007001752965152264,-0.0004507883859332651,0.0011801847722381353,0.18683336675167084,-0.18635688722133636,9.797845840454102
312311,3007568,0.41006145833333335,26.628347396850586,0.0006496537826023996,0.0002773413434624672,0.0012019947171211243,0.16331340372562408,-0.1638375222682953,9.778451919555664
312768,3008025,0.4105695833333333,26.583984375,0.0005930475890636444,0.000425235484726727,0.0015942284371703863,0.13394977152347565,-0.17591914534568787,9.801525115966797
312799,3008056,0.41110375,26.583984375,0.0007184651331044734,9.689086436992511e-05,0.0017387251136824489,0.15286612510681152,-0.1661156415939331,9.811080932617188
313867,3009124,0.4115977604166667,26.593191146850586,0.0009723848779685795,-0.0004967760760337114,0.0014003985561430454,0.1833663135766983,-0.15247315168380737,9.808859825134277
313928,3009185,0.41210989583333335,26.583984375,0.0005230322130955756,-0.0012514853151515126,0.0010386556386947632,0.20922210812568665,-0.17309051752090454,9.80481243133545
314386,3009643,0.4126478125,26.583984375,0.0004744024481624365,-0.0013238303363323212,0.0001534384791739285,0.1969282329082489,-0.16844473779201508,9.793842315673828
314905,3010162,0.41318385416666664,26.583984375,0.0012381734559312463,-0.0016452926211059093,-0.00030322381644509733,0.16762438416481018,-0.1914013922214508,9.800970077514648
315973,3011230,0.41372,26.583984375,0.0019320384599268436,-0.002029714174568653,-0.0006873849779367447,0.10458336770534515,-0.15516838431358337,9.800813674926758
316492,3011749,0.41421854166666666,26.563058853149414,0.002064688829705119,-0.0021853004582226276,-0.000809268734883517,0.09628555178642273,-0.18179257214069366,9.789461135864258
316522,3011779,0.41472729166666666,26.583984375,0.0027393249329179525,-0.002982709789648652,-0.0010807879734784365,0.1401258409023285,-0.2094721794128418,9.77020263671875
316980,3012237,0.41526307291666664,26.583984375,0.0029196254909038544,-0.004186681471765041,-0.000406447215937078,0.17798060178756714,-0.18361257016658783,9.792854309082031
317499,3012756,0.4157990625,26.583984375,0.003327573649585247,-0.0041183652356266975,-0.00030043628066778183,0.16147074103355408,-0.1679975986480713,9.821012496948242
317987,3013244,0.4162990625,26.592634201049805,0.003255479969084263,-0.0029778359457850456,-0.00043323810677975416,0.15839460492134094,-0.1657213270664215,9.836997985839844
318506,3013763,0.4168072395833333,26.5908203125,0.0029781642369925976,-0.00287501304410398,-0.00025154920876957476,0.12247231602668762,-0.1617634892463684,9.799988746643066
318994,3014251,0.4173439583333333,26.587890625,0.0028015458956360817,-0.00326273194514215,-0.000261814973782748,0.12971679866313934,-0.18133503198623657,9.800178527832031
319543,3014800,0.41787895833333333,26.587890625,0.0028634043410420418,-0.0030392189510166645,-0.0005429109442047775,0.08475741744041443,-0.175211563706398,9.78909683227539
320093,3015350,0.41839885416666667,26.58761215209961,0.0029044433031231165,-0.0032634264789521694,-0.00024287050473503768,0.03590141236782074,-0.17773887515068054,9.763616561889648
321161,3016418,0.41888567708333335,26.587890625,0.004346814006567001,-0.0046715158969163895,0.0005942253628745675,0.06498944759368896,-0.19290675222873688,9.747282981872559
321679,3016936,0.4193999479166667,26.52120590209961,0.005505621898919344,-0.00601683184504509,0.0004549002042040229,0.0835256576538086,-0.20085200667381287,9.746049880981445
322137,3017394,0.41989182291666666,26.587890625,0.006747129373252392,-0.005955749191343784,0.0010424088686704636,0.10975886136293411,-0.1741446852684021,9.795778274536133
322168,3017425,0.42039911458333334,26.59765625,0.00787912867963314,-0.006526925601065159,0.0013192691840231419,0.08672046661376953,-0.18675820529460907,9.801897048950195
322686,3017943,0.42089635416666665,26.587890625,0.009072015061974525,-0.007391748949885368,0.0009652110747992992,0.06303748488426208,-0.17669574916362762,9.79384994506836
323205,3018462,0.42140067708333334,26.6328125,0.009222939610481262,-0.008015258237719536,0.0016790458466857672,0.05306755006313324,-0.15516874194145203,9.78152084350586
323724,3018981,0.4219027083333333,26.587890625,0.009152473881840706,-0.008690837770700455,0.002126692095771432,0.06076309084892273,-0.1451416164636612,9.786691665649414
324212,3019469,0.4224409895833333,26.587890625,0.009654581546783447,-0.009984871372580528,0.0014744909713044763,0.038153816014528275,-0.1033627837896347,9.725276947021484
324701,3019958,0.42293692708333336,26.59933090209961,0.01040351390838623,-0.011425504460930824,0.0013327313354238868,0.08462552726268768,-0.12337993085384369,9.764305114746094
325219,3020476,0.4234483854166667,26.5888671875,0.011187191121280193,-0.011133762076497078,0.0014339841436594725,0.043051816523075104,-0.10489398241043091,9.820807456970215
326288,3021545,0.42398302083333334,26.58935546875,0.01193198375403881,-0.009957239031791687,0.001506476430222392,0.05722556263208389,-0.07918567955493927,9.845361709594727
326806,3022063,0.42452067708333335,26.58935546875,0.011003965511918068,-0.010174589231610298,0.0011208481155335903,0.03271123021841049,-0.10631439089775085,9.833093643188477
327264,3022521,0.4250565625,26.58935546875,0.010038172826170921,-0.010200420394539833,0.0009931479580700397,0.09502602368593216,-0.06847967952489853,9.831541061401367
327295,3022552,0.42559307291666665,26.58642578125,0.00918059702962637,-0.009311849251389503,0.0005641064490191638,0.05884983018040657,-0.09166933596134186,9.847736358642578
328241,3023498,0.42608713541666665,26.600446701049805,0.007327103987336159,-0.008349087089300156,4.021756467409432e-06,0.0884334146976471,-0.08381757885217667,9.830879211425781
328271,3023528,0.4266008333333333,26.58740234375,0.006882889196276665,-0.007000747136771679,-0.00046760740224272013,0.07676133513450623,-0.10115164518356323,9.80036735534668
329278,3024535,0.42713677083333335,26.58740234375,0.007048148661851883,-0.004877421073615551,-0.0012807880993932486,0.08331163972616196,-0.1012994796037674,9.862398147583008
329431,3024688,0.42767328125,26.58740234375,0.005946521181613207,-0.002608494833111763,-0.001916015287861228,0.030796505510807037,-0.06908702850341797,9.837949752807617
329827,3025084,0.42816739583333335,26.5703125,0.00411741528660059,-0.0015547010116279125,-0.002350191818550229,0.08154548704624176,-0.1467614769935608,9.828912734985352
333428,3028685,0.4286802083333333,26.58740234375,0.002528127282857895,-0.0014216155977919698,-0.002343554515391588,0.08515164256095886,-0.11146766692399979,9.808903694152832
334069,3029326,0.42921572916666667,26.58740234375,0.002576767234131694,0.0004022752109449357,-0.002589003648608923,0.06198731064796448,-0.1604917198419571,9.813213348388672
334527,3029784,0.42975265625,26.58740234375,0.0020550712943077087,0.0008424898260273039,-0.002943305065855384,0.09453721344470978,-0.1428278684616089,9.809220314025879
334558,3029815,0.4302903645833333,26.58740234375,0.0014087064191699028,-0.00047093414468690753,-0.0030819582752883434,0.07948049902915955,-0.15377584099769592,9.793112754821777
334619,3029876,0.4308266666666667,26.58740234375,0.0009530928218737245,0.0011836804915219545,-0.003296992275863886,0.05941703915596008,-0.16532567143440247,9.799118041992188
335076,3030333,0.4313425,26.596540451049805,0.0014911862090229988,0.0024472041986882687,-0.003577745985239744,0.06396383792161942,-0.16341532766819,9.808944702148438
335107,3030364,0.43187828125,26.520647048950195,0.0025916313752532005,0.0014100404223427176,-0.003828811924904585,0.07560253888368607,-0.17475247383117676,9.785154342651367
335168,3030425,0.43237,26.58740234375,0.0030607148073613644,0.0012603517388924956,-0.003099040361121297,0.08981675654649734,-0.15664729475975037,9.804485321044922
335565,3030822,0.4328734895833333,26.596540451049805,0.0027220286428928375,0.001534920302219689,-0.0027770360466092825,0.0924786925315857,-0.16953489184379578,9.813750267028809
335992,3031249,0.433375625,26.59033203125,0.0034062331542372704,0.0014668410876765847,-0.0032144226133823395,0.09476196020841599,-0.16598033905029297,9.793535232543945
336633,3031890,0.43391203125,26.58447265625,0.003630523569881916,0.0014583587180823088,-0.003096459899097681,0.10997751355171204,-0.16776463389396667,9.800439834594727
337152,3032409,0.43444791666666666,26.58447265625,0.0038274589460343122,0.001833826070651412,-0.0028348250780254602,0.05954909324645996,-0.16295510530471802,9.788885116577148
337182,3032439,0.434950625,26.586496353149414,0.004065904766321182,0.0013331675436347723,-0.0035622352734208107,0.07647587358951569,-0.15414272248744965,9.769780158996582
337579,3032836,0.43545666666666666,26.58251953125,0.0046565942466259,-0.0003445541369728744,-0.0036839430686086416,0.08198738098144531,-0.14888177812099457,9.760005950927734
337701,3032958,0.43599177083333335,26.58251953125,0.005625978112220764,-0.0012392059434205294,-0.0037891834508627653,0.11040163040161133,-0.10737866908311844,9.792682647705078
338189,3033446,0.4364928645833333,26.625558853149414,0.006755870766937733,-0.0008492680499330163,-0.004185881000012159,0.0910729393362999,-0.07845448702573776,9.799837112426758
338677,3033934,0.43699786458333334,26.58251953125,0.006899987813085318,-0.0008506462327204645,-0.004199407994747162,0.10094615817070007,-0.12004688382148743,9.822074890136719
339196,3034453,0.4375084375,26.58035659790039,0.00619623064994812,-0.0019817191641777754,-0.004371315706521273,0.09913875162601471,-0.08181969076395035,9.788092613220215
339745,3035002,0.43800364583333334,26.58251953125,0.006343694403767586,-0.0028408747166395187,-0.005000784993171692,0.057656317949295044,-0.06951290369033813,9.778131484985352
340264,3035521,0.43854177083333334,26.58251953125,0.006763967219740152,-0.004172961227595806,-0.00518064945936203,0.06141534075140953,-0.03612487018108368,9.80670166015625
340753,3036010,0.43905223958333334,26.56473159790039,0.007209108676761389,-0.004236184060573578,-0.006001998670399189,0.03622021526098251,-0.021433599293231964,9.796854019165039
342278,3037535,0.43954791666666665,26.58251953125,0.007556932047009468,-0.003131380770355463,-0.006322383880615234,0.008820688351988792,-0.03707077354192734,9.813338279724121
343255,3038512,0.4400834895833333,26.58349609375,0.00798366591334343,-0.002684079110622406,-0.0065178414806723595,-0.03372886776924133,-0.01192827895283699,9.798322677612305
343316,3038573,0.4405884375,26.593191146850586,0.007879425771534443,-0.0034214998595416546,-0.006713399663567543,0.004071113187819719,-0.007227370981127024,9.780420303344727
343774,3039031,0.4410896875,26.58544921875,0.006934190168976784,-0.004052578471601009,-0.006706657819449902,0.06275887042284012,-0.008329476229846478,9.825276374816895
343804,3039061,0.44158635416666664,26.606027603149414,0.007080525159835815,-0.003187526948750019,-0.006745961494743824,0.05086231976747513,0.0202656090259552,9.850675582885742
344293,3039550,0.44209625,26.58544921875,0.006783998571336269,-0.00047256360994651914,-0.00812690518796444,-0.047541823238134384,0.008005916140973568,9.868709564208984
344415,3039672,0.44263328125,26.58544921875,0.005684106610715389,0.0018957473803311586,-0.009575555101037025,-0.15461602807044983,-0.006891179829835892,9.83601188659668
344872,3040129,0.4431305208333333,26.594308853149414,0.00370109174400568,0.002671628724783659,-0.009691905230283737,-0.1830405592918396,-0.026577627286314964,9.78506088256836
345391,3040648,0.443639375,26.58740234375,0.003011679509654641,0.0022070833947509527,-0.008691835217177868,-0.10319589078426361,0.00452922098338604,9.797070503234863
345910,3041167,0.4441759895833333,26.58740234375,0.0032305950298905373,0.0021292632445693016,-0.00786864198744297,-0.06742818653583527,-0.022295363247394562,9.790426254272461
346978,3042235,0.44466505208333335,26.522878646850586,0.004245915915817022,0.004374579060822725,-0.0076593151316046715,-0.043583471328020096,-0.029886510223150253,9.795928955078125
347497,3042754,0.44518411458333335,26.58837890625,0.005108633078634739,0.006408708170056343,-0.007541025057435036,-0.08228427916765213,-0.06240633502602577,9.850114822387695
347558,3042815,0.44571838541666664,26.58837890625,0.004679497331380844,0.007831228896975517,-0.006769970990717411,-0.1640762984752655,-0.023747609928250313,9.862701416015625
347985,3043242,0.4462571354166667,26.58837890625,0.004547334276139736,0.007892530411481857,-0.0053947255946695805,-0.20262345671653748,-0.006352694239467382,9.856371879577637
348534,3043791,0.4467931770833333,26.58837890625,0.003531605936586857,0.006831370759755373,-0.0034944743383675814,-0.19741401076316833,-0.04333305358886719,9.801692008972168
349023,3044280,0.4473285416666667,26.58837890625,0.0032516554929316044,0.007653155364096165,-0.0013949568383395672,-0.24832572042942047,-0.013893195427954197,9.783764839172363
349541,3044798,0.447865625,26.58837890625,0.003939840942621231,0.010817581787705421,-0.0008829676080495119,-0.2632407546043396,-0.028712593019008636,9.8206148147583
350060,3045317,0.4483685416666667,26.632253646850586,0.004382628947496414,0.012388098053634167,-0.0008905237773433328,-0.1920352280139923,-0.052540816366672516,9.842554092407227
350549,3045806,0.44887317708333335,26.58837890625,0.0039032010827213526,0.012440482154488564,-0.0006513867410831153,-0.20194151997566223,-0.053011007606983185,9.866695404052734
351098,3046355,0.44938421875,26.593191146850586,0.0017284044297412038,0.013798069208860397,-0.0007667959434911609,-0.1998879611492157,-0.07337217032909393,9.902905464172363
352166,3047423,0.4498788541666667,26.58837890625,-0.00049096584552899,0.016396690160036087,-0.0019041673513129354,-0.20772504806518555,-0.08536309003829956,9.87240219116211
352685,3047942,0.45041515625,26.58837890625,-0.002163872355595231,0.017514709383249283,-0.0037522544153034687,-0.12109419703483582,-0.13417893648147583,9.852001190185547
352715,3047972,0.45093265625,26.56417465209961,-0.003111430909484625,0.017331743612885475,-0.0050169131718575954,-0.14251428842544556,-0.14879852533340454,9.840932846069336
353173,3048430,0.4514215625,26.583984375,-0.00349612208083272,0.017092393711209297,-0.00756421871483326,-0.16101863980293274,-0.0571623332798481,9.81229019165039
353661,3048918,0.45195734375,26.59228515625,-0.0032981405965983868,0.01448895875364542,-0.009527593851089478,-0.12233395874500275,-0.0020188847556710243,9.784786224365234
354211,3049468,0.4524649479166667,26.59988784790039,-0.0024883942678570747,0.013024283573031425,-0.01060536690056324,-0.11233625560998917,0.045644260942935944,9.791450500488281
354729,3049986,0.45296291666666666,26.59228515625,0.00027940075960941613,0.012972628697752953,-0.012659991160035133,-0.11203931272029877,0.06766939908266068,9.792730331420898
355218,3050475,0.45346744791666665,26.518972396850586,0.003261841833591461,0.01304180733859539,-0.014760218560695648,-0.0671120285987854,0.035690777003765106,9.805906295776367
355736,3050993,0.4539711979166667,26.59228515625,0.0038894382305443287,0.011618707329034805,-0.016071995720267296,0.01771729066967964,0.059377264231443405,9.780579566955566
357323,3052580,0.45447182291666666,26.590402603149414,0.002788607031106949,0.008334575220942497,-0.01653118059039116,0.14888089895248413,0.06394070386886597,9.781920433044434
357873,3053130,0.4549759375,26.59228515625,2.395690535195172e-05,0.004955476615577936,-0.01690128818154335,0.22131961584091187,0.07302198559045792,9.748866081237793
358361,3053618,0.4555120833333333,26.59228515625,-0.0020237527787685394,0.004142935387790203,-0.02020268142223358,0.23421400785446167,0.09128385782241821,9.71744155883789
358391,3053648,0.45604828125,26.59228515625,-0.001890956424176693,0.005768320523202419,-0.026518989354372025,0.08157865703105927,0.1061648577451706,9.791034698486328
358880,3054137,0.45658723958333336,26.59228515625,-0.0020366632379591465,0.008061320520937443,-0.03335261717438698,0.08271098136901855,0.13904696702957153,9.875386238098145
358941,3054198,0.45712260416666667,26.59130859375,-0.003066503908485174,0.004770777188241482,-0.038095708936452866,0.2248329222202301,0.1008613258600235,9.88736343383789
359398,3054655,0.45766130208333333,26.59130859375,-0.0046667116694152355,-0.003174901008605957,-0.042459115386009216,0.4340460002422333,0.11077135801315308,9.850847244262695
359917,3055174,0.45815979166666665,26.617746353149414,-0.007914796471595764,-0.011107318103313446,-0.048087090253829956,-0.40493738651275635,0.7976661920547485,8.3687744140625
360406,3055663,0.45866536458333335,26.59228515625,-0.0315685048699379,-0.043443549424409866,-0.053275614976882935,-5.743494510650635,0.3141101002693176,8.231613159179688
360924,3056181,0.45920265625,26.59228515625,-0.10158312320709229,-0.1735110580921173,-0.034656625241041183,3.8282411098480225,-4.0467376708984375,10.86933708190918
361443,3056700,0.4596968229166667,26.602121353149414,-0.10910578072071075,-0.25925883650779724,0.0020499657839536667,3.246293544769287,-0.9915017485618591,5.977259635925293
362511,3057768,0.4602128645833333,26.5869140625,-0.010600018315017223,-0.10443411767482758,-0.03279055655002594,0.6593316793441772,2.4525442123413086,10.667980194091797
363030,3058287,0.46074645833333333,26.58935546875,0.056157998740673065,0.061406612396240234,-0.07890546321868896,-0.7842530012130737,-0.4161405563354492,13.08150863647461
363488,3058745,0.4612383854166667,26.63058090209961,0.045285291969776154,0.0017976847011595964,-0.07654649019241333,2.049003839492798,-0.9626871347427368,9.799507141113281
363518,3058775,0.46175140625,26.58935546875,0.029013395309448242,-0.06153671070933342,-0.046916622668504715,-2.216616630554199,-0.8392065763473511,10.0780029296875
364037,3059294,0.46228854166666666,26.58837890625,0.010672739706933498,-0.008205374702811241,-0.03629320487380028,-3.194930076599121,0.8485308885574341,11.699798583984375
364556,3059813,0.46282640625,26.58837890625,-0.005086034070700407,-0.03537356108427048,-0.008070571348071098,1.6052484512329102,-0.41515278816223145,10.300238609313965
365075,3060332,0.4633615104166667,26.58837890625,0.015272954478859901,-0.1465497612953186,0.0029429858550429344,3.8586766719818115,-1.8476511240005493,7.507084846496582
365563,3060820,0.46389796875,26.58837890625,0.06524576246738434,-0.12203868478536606,-0.04390773922204971,0.5592011213302612,-0.5973223447799683,9.931781768798828
366082,3061339,0.46443645833333336,26.58837890625,0.10775752365589142,-0.0016791631933301687,-0.0835413858294487,-1.6170355081558228,-0.5226340293884277,9.606658935546875
366600,3061857,0.464971875,26.58837890625,0.0772399753332138,-0.05180623009800911,-0.05711618810892105,3.443552017211914,-1.5252165794372559,8.982076644897461
367699,3062956,0.46547473958333335,26.594308853149414,0.015674974769353867,-0.16777169704437256,-0.024494819343090057,1.2986011505126953,-0.4602212905883789,9.240469932556152
368218,3063475,0.46597770833333335,26.58837890625,0.029034849256277084,-0.0944698378443718,-0.03513028472661972,-0.7807638049125671,1.0409491062164307,10.101066589355469
368248,3063505,0.4665139583333333,26.58837890625,0.05700964853167534,-0.026889823377132416,-0.04739874601364136,0.49744856357574463,-1.0936918258666992,10.741800308227539
368706,3063963,0.46702,26.514509201049805,0.06222032010555267,-0.06529536843299866,-0.05143880844116211,-0.5627819299697876,-1.0104405879974365,10.001080513000488
369194,3064451,0.46752057291666665,26.58984375,0.08089539408683777,-0.07330125570297241,-0.053985729813575745,-0.9548952579498291,0.6300837993621826,10.009134292602539
369713,3064970,0.46805708333333335,26.59521484375,0.06818829476833344,-0.08880947530269623,-0.03898271918296814,1.1719858646392822,-1.234956979751587,11.479227066040039
370201,3065458,0.46855989583333335,26.583147048950195,0.041387781500816345,-0.12943851947784424,-0.012303227558732033,2.4972920417785645,0.20625849068164825,9.784778594970703
370751,3066008,0.4690652604166667,26.59521484375,0.047843556851148605,-0.14448529481887817,-0.018546996638178825,2.273671865463257,-0.21660225093364716,8.794918060302734
371239,3066496,0.4695993229166667,26.5927734375,0.05031543970108032,-0.0835132747888565,-0.03803061321377754,0.18159912526607513,-1.3791464567184448,10.143254280090332
371849,3067106,0.470108125,26.596540451049805,0.05311646685004234,-0.016804726794362068,-0.03540755808353424,-1.343785285949707,0.42289793491363525,9.462553024291992
372856,3068113,0.4706078125,26.5927734375,0.04564805328845978,-0.04799622297286987,-0.02329980954527855,0.33130139112472534,-1.220167636871338,9.056836128234863
373375,3068632,0.47114276041666664,26.5927734375,0.02199271321296692,-0.09231950342655182,-0.006545316427946091,0.7025415897369385,0.1011325865983963,9.507061004638672
373772,3069029,0.47165807291666667,26.63448715209961,0.032826267182826996,-0.05700479447841644,0.0024052727967500687,0.08634382486343384,0.46539366245269775,10.21086311340332
373894,3069151,0.4721221875,26.59207534790039,0.04324912279844284,-0.02802722528576851,0.00010629568714648485,1.4028853178024292,-0.836794376373291,10.532228469848633
374382,3069639,0.47261875,26.5927734375,0.037366412580013275,-0.037964582443237305,-0.0030488702468574047,0.46020713448524475,-0.024393346160650253,9.918418884277344
